BlockType,BlockType_v2,CondsFile,ImageFile,KeySymbol,TargetSymbol,CorrResp_numV1,CorrResp,CorrResp_numV2,CorrRespV2,NumberPosition,fixtime,SetNum,SetType,dsst_run.thisRepN,dsst_run.thisTrialN,dsst_run.thisN,dsst_run.thisIndex,dsst_block.thisRepN,dsst_block.thisTrialN,dsst_block.thisN,dsst_block.thisIndex,dsst_trial.thisRepN,dsst_trial.thisTrialN,dsst_trial.thisN,dsst_trial.thisIndex,thisRow.t,notes,welcome.started,WelcomeInst.started,Welcome_Resp.started,welcome.stopped,Welcome_Resp.keys,Welcome_Resp.rt,Welcome_Resp.duration,parId,Inst_1.started,text_inst_1.started,text_inst_1_resp.started,Inst_1.stopped,text_inst_1_resp.keys,text_inst_1_resp.rt,text_inst_1_resp.duration,Inst_2.started,text_inst_2.started,text_inst_2_resp.started,Inst_2.stopped,text_inst_2_resp.keys,text_inst_2_resp.rt,text_inst_2_resp.duration,Wait_trigger.started,text_wait.started,ready.started,Wait_trigger.stopped,ready.keys,ready.rt,ready.duration,Wait_2.started,text_wait_2.started,scanner_trigger.started,text_wait_2.stopped,Wait_2.stopped,scanner_trigger.keys,scanner_trigger.rt,scanner_trigger.duration,Inst_block.started,Img_dsst_block.started,Img_dsst_block_resp.started,Inst_block.stopped,Img_dsst_block_resp.keys,Img_dsst_block_resp.rt,Img_dsst_block_resp.duration,block_start_time,fix.started,fixation.started,fixation.stopped,fix.stopped,Trial_dsst.started,img_dsst_trial.started,key_dsst_resp.started,stimulus_start_time,Trial_dsst.stopped,key_dsst_resp.keys,key_dsst_resp.corr,key_dsst_resp.rt,key_dsst_resp.duration,stimulus_end_time,block_end.started,block_end_time,block_end.stopped,end.started,End.started,End.stopped,end.stopped,participantId,session,date,expName,psychopyVersion,expStart,
,,,,,,,,,,,,,,,,,,,,,,,,,,,,0.1638273730641231,0.20309256901964545,0.20309256901964545,2.941104982048273,num_2,2.504417168092914,None,CBAS0004,,,,,,,,,,,,,,,,,,,,,,,,,,,,,,,,,,,,,,,,,,,,,,,,,,,,,,,,,,,CBAS0004,001,2024-12-11_14h22.35.334,dsst,2024.1.4,2024-12-11 14h22.45.199398 -0500,
,,,,,,,,,,,,,,,,,,,,,,,,,,,,,,,,,,,,2.9411422710400075,2.9696769900619984,3.9339142760727555,13.946649880032055,num_2,9.997584876953624,None,,,,,,,,,,,,,,,,,,,,,,,,,,,,,,,,,,,,,,,,,,,,,,,,,,,,CBAS0004,001,2024-12-11_14h22.35.334,dsst,2024.1.4,2024-12-11 14h22.45.199398 -0500,
,,,,,,,,,,,,,,,,,,,,,,,,,,,,,,,,,,,,,,,,,,,13.946700782049447,13.964260367094539,14.441098056035116,37.44906886504032,num_2,22.994208786054514,None,,,,,,,,,,,,,,,,,,,,,,,,,,,,,,,,,,,,,,,,,,,,,CBAS0004,001,2024-12-11_14h22.35.334,dsst,2024.1.4,2024-12-11 14h22.45.199398 -0500,
,,,,,,,,,,,,,,,,,,,,,,,,,,,,,,,,,,,,,,,,,,,,,,,,,,37.44911858509295,37.4642551750876,37.4642551750876,47.85022669401951,space,10.384744753013365,None,,,,,,,,,,,,,,,,,,,,,,,,,,,,,,,,,,,,,,CBAS0004,001,2024-12-11_14h22.35.334,dsst,2024.1.4,2024-12-11 14h22.45.199398 -0500,
,,,,,,,,,,,,,,,,,,,,,,,,,,,,,,,,,,,,,,,,,,,,,,,,,,,,,,,,,47.85027263406664,47.855562838027254,47.855562838027254,53.85501955100335,55.430501675000414,num_divide,7.57192572299391,None,,,,,,,,,,,,,,,,,,,,,,,,,,,,,,CBAS0004,001,2024-12-11_14h22.35.334,dsst,2024.1.4,2024-12-11 14h22.45.199398 -0500,
images/Inst_cond9.jpeg,images/Inst_cond9_v2.jpeg,set9run1trials.xlsx,images/Slide68.jpeg,⦊,⦊,num_8,1,num_5,2,1,1.2365525527031083,9,,0,0,0,0,0,0,0,3,0,0,0,0,61.63441932504065,,,,,,,,,,,,,,,,,,,,,,,,,,,,,,,,,,,,,,,55.439991794060916,55.501258651027456,55.92888824408874,61.60114240599796,num_2,5.6666000620462,None,6.171365731977858,61.62409575807396,61.63441932504065,62.91438720806036,62.8615973360138,62.86163097107783,62.91438720806036,62.91438720806036,7.484257036936469,64.20203678007238,num_8,1,1.2731529800221324,None,8.772463195957243,,,,,,,,CBAS0004,001,2024-12-11_14h22.35.334,dsst,2024.1.4,2024-12-11 14h22.45.199398 -0500,
images/Inst_cond9.jpeg,images/Inst_cond9_v2.jpeg,set9run1trials.xlsx,images/Slide78.jpeg,ꝲ,⦢,num_5,2,num_8,1,9,1.6703784184002952,9,,0,0,0,0,0,0,0,3,0,1,1,10,64.21619601501152,,,,,,,,,,,,,,,,,,,,,,,,,,,,,,,,,,,,,,,,,,,,,,,64.20336501905695,64.21619601501152,65.9191343249986,65.87748541601468,65.87751871207729,65.9191343249986,65.9191343249986,10.489152978989296,67.45037495903671,num_5,1,1.516366266994737,None,12.020437260041945,,,,,,,,CBAS0004,001,2024-12-11_14h22.35.334,dsst,2024.1.4,2024-12-11 14h22.45.199398 -0500,
images/Inst_cond9.jpeg,images/Inst_cond9_v2.jpeg,set9run1trials.xlsx,images/Slide73.jpeg,⊂,⪧,num_5,2,num_8,1,5,1.4242807066333847,9,,0,0,0,0,0,0,0,3,0,2,2,5,67.46398509503342,,,,,,,,,,,,,,,,,,,,,,,,,,,,,,,,,,,,,,,,,,,,,,,67.45132267009467,67.46398509503342,68.92091108008754,68.87676446407568,68.87679854303133,68.92091108008754,68.92091108008754,13.490716089028865,70.10986705299001,num_5,1,1.186654775054194,None,14.680066535947844,,,,,,,,CBAS0004,001,2024-12-11_14h22.35.334,dsst,2024.1.4,2024-12-11 14h22.45.199398 -0500,
images/Inst_cond9.jpeg,images/Inst_cond9_v2.jpeg,set9run1trials.xlsx,images/Slide70.jpeg,⊢,⊢,num_8,1,num_5,2,2,0.8757023962282248,9,,0,0,0,0,0,0,0,3,0,3,3,2,70.12064808409195,,,,,,,,,,,,,,,,,,,,,,,,,,,,,,,,,,,,,,,,,,,,,,,70.11095155705698,70.12064808409195,71.0092888250947,70.97915470099542,70.97918135300279,71.0092888250947,71.0092888250947,15.579140821937472,72.12630433798768,num_8,1,1.1142333709867671,None,16.696558424038813,,,,,,,,CBAS0004,001,2024-12-11_14h22.35.334,dsst,2024.1.4,2024-12-11 14h22.45.199398 -0500,
images/Inst_cond9.jpeg,images/Inst_cond9_v2.jpeg,set9run1trials.xlsx,images/Slide75.jpeg,৴,ᴒ,num_5,2,num_8,1,6,1.642812312457433,9,,0,0,0,0,0,0,0,3,0,4,4,7,72.13710140809417,,,,,,,,,,,,,,,,,,,,,,,,,,,,,,,,,,,,,,,,,,,,,,,72.12740465102252,72.13710140809417,73.80339136603288,73.76408319105394,73.76411494403146,73.80339136603288,73.80339136603288,18.373225794988684,74.7321886230493,num_5,1,0.9120931000215933,None,19.302239438984543,,,,,,,,CBAS0004,001,2024-12-11_14h22.35.334,dsst,2024.1.4,2024-12-11 14h22.45.199398 -0500,
images/Inst_cond9.jpeg,images/Inst_cond9_v2.jpeg,set9run1trials.xlsx,images/Slide72.jpeg,⦒,⦒,num_8,1,num_5,2,4,1.040959215279409,9,,0,0,0,0,0,0,0,3,0,5,5,4,74.74542833107989,,,,,,,,,,,,,,,,,,,,,,,,,,,,,,,,,,,,,,,,,,,,,,,74.73312024807092,74.74542833107989,75.81520481908228,75.7750027270522,75.77504985709675,75.81520481908228,75.81520481908228,20.38509941799566,76.91435329499654,num_8,1,1.0843214860651642,None,21.48447354696691,,,,,,,,CBAS0004,001,2024-12-11_14h22.35.334,dsst,2024.1.4,2024-12-11 14h22.45.199398 -0500,
images/Inst_cond9.jpeg,images/Inst_cond9_v2.jpeg,set9run1trials.xlsx,images/Slide69.jpeg,⋋,⟚,num_5,2,num_8,1,1,1.155520703273063,9,,0,0,0,0,0,0,0,3,0,6,6,1,76.92796375206672,,,,,,,,,,,,,,,,,,,,,,,,,,,,,,,,,,,,,,,,,,,,,,,76.91541236301418,76.92796375206672,78.1110495890025,78.07396733108908,78.07401084306184,78.1110495890025,78.1110495890025,22.68090958998073,78.95014657801948,num_5,1,0.8203951449831948,None,23.520231875940226,,,,,,,,CBAS0004,001,2024-12-11_14h22.35.334,dsst,2024.1.4,2024-12-11 14h22.45.199398 -0500,
images/Inst_cond9.jpeg,images/Inst_cond9_v2.jpeg,set9run1trials.xlsx,images/Slide79.jpeg,⧍,⧍,num_8,1,num_5,2,9,1.2659615135699367,9,,0,0,0,0,0,0,0,3,0,7,7,11,78.96388752106577,,,,,,,,,,,,,,,,,,,,,,,,,,,,,,,,,,,,,,,,,,,,,,,78.95113677706104,78.96388752106577,80.24929098307621,80.21321980899666,80.21326270303689,80.24929098307621,80.24929098307621,24.819110765005462,81.15780121902935,num_8,1,0.8901767909992486,None,25.727902055950835,,,,,,,,CBAS0004,001,2024-12-11_14h22.35.334,dsst,2024.1.4,2024-12-11 14h22.45.199398 -0500,
images/Inst_cond9.jpeg,images/Inst_cond9_v2.jpeg,set9run1trials.xlsx,images/Slide74.jpeg,⋊,⋊,num_8,1,num_5,2,5,1.2612444572293,9,,0,0,0,0,0,0,0,3,0,8,8,6,81.17221393401269,,,,,,,,,,,,,,,,,,,,,,,,,,,,,,,,,,,,,,,,,,,,,,,81.1588056050241,81.17221393401269,82.45897651207633,82.42308535205666,82.42313640401699,82.45897651207633,82.45897651207633,27.02880653401371,83.64322034607176,num_8,1,1.1685681090457365,None,28.21331447502598,,,,,,,,CBAS0004,001,2024-12-11_14h22.35.334,dsst,2024.1.4,2024-12-11 14h22.45.199398 -0500,
images/Inst_cond9.jpeg,images/Inst_cond9_v2.jpeg,set9run1trials.xlsx,images/Slide71.jpeg,⋺,⧢,num_5,2,num_8,1,3,1.3340414267736418,9,,0,0,0,0,0,0,0,3,0,9,9,3,83.65718113200273,,,,,,,,,,,,,,,,,,,,,,,,,,,,,,,,,,,,,,,,,,,,,,,83.64417358406354,83.65718113200273,85.01187753502745,84.9764074870618,84.97643349203281,85.01187753502745,85.01187753502745,29.58175895898603,86.09435160004068,num_5,1,1.079639190924354,None,30.664427308016457,,,,,,,,CBAS0004,001,2024-12-11_14h22.35.334,dsst,2024.1.4,2024-12-11 14h22.45.199398 -0500,
images/Inst_cond9.jpeg,images/Inst_cond9_v2.jpeg,set9run1trials.xlsx,images/Slide76.jpeg,⨪,⨪,num_8,1,num_5,2,7,1.5557301430534762,9,,0,0,0,0,0,0,0,3,0,10,10,8,86.12050774006639,,,,,,,,,,,,,,,,,,,,,,,,,,,,,,,,,,,,,,,,,,,,,,,86.0952566730557,86.12050774006639,87.70019423798658,87.6602994040586,87.66034251300152,87.70019423798658,87.70019423798658,32.270015419926494,88.64289398898836,num_8,1,0.9273438869277015,None,33.212986074970104,,,,,,,,CBAS0004,001,2024-12-11_14h22.35.334,dsst,2024.1.4,2024-12-11 14h22.45.199398 -0500,
images/Inst_cond9.jpeg,images/Inst_cond9_v2.jpeg,set9run1trials.xlsx,images/Slide77.jpeg,୴,7.0,num_5,2,num_8,1,8,1.571269190674926,9,,0,0,0,0,0,0,0,3,0,11,11,9,88.65630593302194,,,,,,,,,,,,,,,,,,,,,,,,,,,,,,,,,,,,,,,,,,,,,,,88.64386924204882,88.65630593302194,90.2624953170307,90.2214566069888,90.22150494507514,90.2624953170307,90.2624953170307,34.83235170994885,91.15935014106799,num_5,1,0.8929796549491584,None,35.72948166797869,,,,,,,,CBAS0004,001,2024-12-11_14h22.35.334,dsst,2024.1.4,2024-12-11 14h22.45.199398 -0500,
images/Inst_cond9.jpeg,images/Inst_cond9_v2.jpeg,set9run1trials.xlsx,,,,,,,,,,,,0,0,0,0,0,0,0,3,,,,,,,,,,,,,,,,,,,,,,,,,,,,,,,,,,,,,,,,,,,,,,,,,,,,,,,,,,,,,,,,,,91.16012207104359,35.72961545200087,91.16024500702042,,,,,CBAS0004,001,2024-12-11_14h22.35.334,dsst,2024.1.4,2024-12-11 14h22.45.199398 -0500,
images/Inst_condrt.jpeg,images/Inst_condrt_v2.jpeg,rtrun1trials.xlsx,images/Slide285.jpeg,Ω,ℇ,num_5,j,num_8,f,4,1.1231575889274805,1,r,0,0,0,0,0,1,1,0,0,0,0,6,97.58353119401727,,,,,,,,,,,,,,,,,,,,,,,,,,,,,,,,,,,,,,,91.1604395180475,91.20590745401569,91.65722844901029,96.52504620701075,num_2,4.8662971899611875,None,41.094948992016725,97.56878399499692,97.58353119401727,98.73362414201256,98.70166606805287,98.70168943202589,98.73362414201256,98.73362414201256,43.30351817293558,100.32265487906989,num_5,1,1.573792812996544,None,44.893259480944835,,,,,,,,CBAS0004,001,2024-12-11_14h22.35.334,dsst,2024.1.4,2024-12-11 14h22.45.199398 -0500,
images/Inst_condrt.jpeg,images/Inst_condrt_v2.jpeg,rtrun1trials.xlsx,images/Slide293.jpeg,⦢,⦶,num_5,j,num_8,f,9,0.992989949508859,1,r,0,0,0,0,0,1,1,0,0,1,1,14,100.33621385903098,,,,,,,,,,,,,,,,,,,,,,,,,,,,,,,,,,,,,,,,,,,,,,,100.32417071505915,100.33621385903098,101.3560688639991,101.31778147001751,101.3178091570735,101.3560688639991,101.3560688639991,45.92593112797476,102.29635111207608,num_5,1,0.9274342730641365,None,46.8665111400187,,,,,,,,CBAS0004,001,2024-12-11_14h22.35.334,dsst,2024.1.4,2024-12-11 14h22.45.199398 -0500,
images/Inst_condrt.jpeg,images/Inst_condrt_v2.jpeg,rtrun1trials.xlsx,images/Slide292.jpeg,⧢,⧢,num_8,f,num_5,j,8,1.083226946360256,1,r,0,0,0,0,0,1,1,0,0,2,2,13,102.31173415307421,,,,,,,,,,,,,,,,,,,,,,,,,,,,,,,,,,,,,,,,,,,,,,,102.2974093320081,102.31173415307421,103.42264794406947,103.3839198150672,103.38395322207361,103.42264794406947,103.42264794406947,47.99253862700425,104.37160389008932,num_8,1,0.9328230209648609,None,48.94170816894621,,,,,,,,CBAS0004,001,2024-12-11_14h22.35.334,dsst,2024.1.4,2024-12-11 14h22.45.199398 -0500,
images/Inst_condrt.jpeg,images/Inst_condrt_v2.jpeg,rtrun1trials.xlsx,images/Slide280.jpeg,⫪,⫪,num_8,f,num_5,j,1,1.2152819946529974,1,r,0,0,0,0,0,1,1,0,0,3,3,1,104.38483515603002,,,,,,,,,,,,,,,,,,,,,,,,,,,,,,,,,,,,,,,,,,,,,,,104.37261552503332,104.38483515603002,105.62549400900025,105.58330575807486,105.58335471304599,105.62549400900025,105.62549400900025,50.195370633970015,106.52187073801178,num_8,1,0.8900291089667007,None,51.09198144101538,,,,,,,,CBAS0004,001,2024-12-11_14h22.35.334,dsst,2024.1.4,2024-12-11 14h22.45.199398 -0500,
images/Inst_condrt.jpeg,images/Inst_condrt_v2.jpeg,rtrun1trials.xlsx,images/Slide282.jpeg,⧶,⧶,num_8,f,num_5,j,2,1.5021462692940069,1,r,0,0,0,0,0,1,1,0,0,4,4,3,106.5394706260413,,,,,,,,,,,,,,,,,,,,,,,,,,,,,,,,,,,,,,,,,,,,,,,106.52284904499538,106.5394706260413,108.07353523699567,108.0329385669902,108.03298868401907,108.07353523699567,108.07353523699567,52.64353834500071,109.07138708105776,num_8,1,0.9939290749607608,None,53.64131188800093,,,,,,,,CBAS0004,001,2024-12-11_14h22.35.334,dsst,2024.1.4,2024-12-11 14h22.45.199398 -0500,
images/Inst_condrt.jpeg,images/Inst_condrt_v2.jpeg,rtrun1trials.xlsx,images/Slide286.jpeg,☆,☆,num_8,f,num_5,j,4,1.1618379427978303,1,r,0,0,0,0,0,1,1,0,0,5,5,7,109.08135514508467,,,,,,,,,,,,,,,,,,,,,,,,,,,,,,,,,,,,,,,,,,,,,,,109.07208065409213,109.08135514508467,110.76040834805463,110.23208718199749,110.23212047002744,110.76040834805463,110.76040834805463,55.33022413298022,111.63500697701238,num_8,1,0.8591226179851219,None,56.2050907650264,,,,,,,,CBAS0004,001,2024-12-11_14h22.35.334,dsst,2024.1.4,2024-12-11 14h22.45.199398 -0500,
images/Inst_condrt.jpeg,images/Inst_condrt_v2.jpeg,rtrun1trials.xlsx,images/Slide294.jpeg,⫔,⫔,num_8,f,num_5,j,9,1.3752653903815355,1,r,0,0,0,0,0,1,1,0,0,6,6,15,111.66322272701655,,,,,,,,,,,,,,,,,,,,,,,,,,,,,,,,,,,,,,,,,,,,,,,111.63599070999771,111.66322272701655,113.06812723702751,113.03148378408514,113.03151720401365,113.06812723702751,113.06812723702751,57.63798688398674,114.0316180450609,num_8,1,0.959473536000587,None,58.601502483012155,,,,,,,,CBAS0004,001,2024-12-11_14h22.35.334,dsst,2024.1.4,2024-12-11 14h22.45.199398 -0500,
images/Inst_condrt.jpeg,images/Inst_condrt_v2.jpeg,rtrun1trials.xlsx,images/Slide291.jpeg,⧦,⦧,num_5,j,num_8,f,8,1.0231097731195438,1,r,0,0,0,0,0,1,1,0,0,7,7,12,114.04098035709467,,,,,,,,,,,,,,,,,,,,,,,,,,,,,,,,,,,,,,,,,,,,,,,114.03227737604175,114.04098035709467,115.52753702108748,115.0476228640182,115.04767103900667,115.52753702108748,115.52753702108748,60.097435000003316,116.47990578308236,num_5,1,0.9479680699296296,None,61.049823337001726,,,,,,,,CBAS0004,001,2024-12-11_14h22.35.334,dsst,2024.1.4,2024-12-11 14h22.45.199398 -0500,
images/Inst_condrt.jpeg,images/Inst_condrt_v2.jpeg,rtrun1trials.xlsx,images/Slide290.jpeg,⩳,⩳,num_8,f,num_5,j,7,0.9159016504151306,1,r,0,0,0,0,0,1,1,0,0,8,8,11,116.49014292599168,,,,,,,,,,,,,,,,,,,,,,,,,,,,,,,,,,,,,,,,,,,,,,,116.4805693080416,116.49014292599168,117.79317718802486,117.39546065102331,117.39548524504062,117.79317718802486,117.79317718802486,62.36307613400277,118.77038159000222,num_8,1,0.9623379539698362,None,63.3404679390369,,,,,,,,CBAS0004,001,2024-12-11_14h22.35.334,dsst,2024.1.4,2024-12-11 14h22.45.199398 -0500,
images/Inst_condrt.jpeg,images/Inst_condrt_v2.jpeg,rtrun1trials.xlsx,images/Slide279.jpeg,∤,⦂,num_5,j,num_8,f,1,1.5494218162834268,1,r,0,0,0,0,0,1,1,0,0,9,9,0,118.78343342605513,,,,,,,,,,,,,,,,,,,,,,,,,,,,,,,,,,,,,,,,,,,,,,,118.77135492605157,118.78343342605513,120.35793842899147,120.3186942730099,120.318736587069,120.35793842899147,120.35793842899147,64.9279465440195,121.48036726203281,num_5,1,1.109591610962525,None,66.05046339693945,,,,,,,,CBAS0004,001,2024-12-11_14h22.35.334,dsst,2024.1.4,2024-12-11 14h22.45.199398 -0500,
images/Inst_condrt.jpeg,images/Inst_condrt_v2.jpeg,rtrun1trials.xlsx,images/Slide289.jpeg,⊹,⋈,num_5,j,num_8,f,7,1.3632837382230147,1,r,0,0,0,0,0,1,1,0,0,10,10,10,121.49734569201246,,,,,,,,,,,,,,,,,,,,,,,,,,,,,,,,,,,,,,,,,,,,,,,121.48139243503101,121.49734569201246,123.22517168102786,122.84563467209227,122.84568586898968,123.22517168102786,123.22517168102786,67.79508627695031,124.26924890000373,num_5,1,1.0263174959691241,None,68.83935372799169,,,,,,,,CBAS0004,001,2024-12-11_14h22.35.334,dsst,2024.1.4,2024-12-11 14h22.45.199398 -0500,
images/Inst_condrt.jpeg,images/Inst_condrt_v2.jpeg,rtrun1trials.xlsx,images/Slide284.jpeg,▸,▸,num_8,f,num_5,j,3,1.2777724365695504,1,r,0,0,0,0,0,1,1,0,0,11,11,5,124.28656572906766,,,,,,,,,,,,,,,,,,,,,,,,,,,,,,,,,,,,,,,,,,,,,,,124.27024450409226,124.28656572906766,125.5918829170987,125.55115434806794,125.55121425702237,125.5918829170987,125.5918829170987,70.16184360603802,126.35102506401017,num_8,1,0.7555850449716672,None,70.92089884495363,,,,,,,,CBAS0004,001,2024-12-11_14h22.35.334,dsst,2024.1.4,2024-12-11 14h22.45.199398 -0500,
images/Inst_condrt.jpeg,images/Inst_condrt_v2.jpeg,rtrun1trials.xlsx,images/Slide348.jpeg,⨵,⨵,num_8,f,num_5,j,5,1.033895330594949,1,r,0,0,0,0,0,1,1,0,0,12,12,17,126.37596368498635,,,,,,,,,,,,,,,,,,,,,,,,,,,,,,,,,,,,,,,,,,,,,,,126.35170054808259,126.37596368498635,127.91826194303576,127.39350699505303,127.39355488005094,127.91826194303576,127.91826194303576,72.48825376504101,128.68326073302887,num_8,1,0.7492361740441993,None,73.2534871189855,,,,,,,,CBAS0004,001,2024-12-11_14h22.35.334,dsst,2024.1.4,2024-12-11 14h22.45.199398 -0500,
images/Inst_condrt.jpeg,images/Inst_condrt_v2.jpeg,rtrun1trials.xlsx,images/Slide287.jpeg,⊐,⌠,num_5,j,num_8,f,6,1.6939989976665726,1,r,0,0,0,0,0,1,1,0,0,13,13,8,128.6971871390706,,,,,,,,,,,,,,,,,,,,,,,,,,,,,,,,,,,,,,,,,,,,,,,128.68439726205543,128.6971871390706,130.79556276008952,130.3771337120561,130.37718554702587,130.79556276008952,130.79556276008952,75.36545731301885,131.66699764702935,num_5,1,0.8558590210741386,None,76.2372445219662,,,,,,,,CBAS0004,001,2024-12-11_14h22.35.334,dsst,2024.1.4,2024-12-11 14h22.45.199398 -0500,
images/Inst_condrt.jpeg,images/Inst_condrt_v2.jpeg,rtrun1trials.xlsx,images/Slide281.jpeg,⟖,⦾,num_5,j,num_8,f,2,1.667712943772069,1,r,0,0,0,0,0,1,1,0,0,14,14,2,131.68002832506318,,,,,,,,,,,,,,,,,,,,,,,,,,,,,,,,,,,,,,,,,,,,,,,131.66814581805374,131.68002832506318,133.72044104209635,133.3307971720351,133.33083669107873,133.72044104209635,133.72044104209635,78.29040145804174,134.5053798740264,num_5,1,0.7709925250383094,None,79.07552238600329,,,,,,,,CBAS0004,001,2024-12-11_14h22.35.334,dsst,2024.1.4,2024-12-11 14h22.45.199398 -0500,
images/Inst_condrt.jpeg,images/Inst_condrt_v2.jpeg,rtrun1trials.xlsx,images/Slide288.jpeg,⋗,⋗,num_8,f,num_5,j,6,0.9511621996229495,1,r,0,0,0,0,0,1,1,0,0,15,15,9,134.52064409898594,,,,,,,,,,,,,,,,,,,,,,,,,,,,,,,,,,,,,,,,,,,,,,,134.50641267909668,134.52064409898594,135.5024931540247,135.458525779075,135.45857995608822,135.5024931540247,135.5024931540247,80.07242225494701,136.19799379003234,num_8,1,0.6929876189678907,None,80.76816547696944,,,,,,,,CBAS0004,001,2024-12-11_14h22.35.334,dsst,2024.1.4,2024-12-11 14h22.45.199398 -0500,
images/Inst_condrt.jpeg,images/Inst_condrt_v2.jpeg,rtrun1trials.xlsx,images/Slide283.jpeg,⧫,⧞,num_5,j,num_8,f,3,1.1690006958362607,1,r,0,0,0,0,0,1,1,0,0,16,16,4,136.2235940010287,,,,,,,,,,,,,,,,,,,,,,,,,,,,,,,,,,,,,,,,,,,,,,,136.1989546320401,136.2235940010287,137.78362355206627,137.38098869100213,137.38104738201946,137.78362355206627,137.78362355206627,82.35353609698359,138.580169219058,num_5,1,0.7798577490029857,None,83.15026902698446,,,,,,,,CBAS0004,001,2024-12-11_14h22.35.334,dsst,2024.1.4,2024-12-11 14h22.45.199398 -0500,
images/Inst_condrt.jpeg,images/Inst_condrt_v2.jpeg,rtrun1trials.xlsx,images/Slide347.jpeg,⪤,⩫,num_5,j,num_8,f,5,1.1153212278220153,1,r,0,0,0,0,0,1,1,0,0,17,17,16,138.59322998404969,,,,,,,,,,,,,,,,,,,,,,,,,,,,,,,,,,,,,,,,,,,,,,,138.58115168707445,138.59322998404969,140.22689868998714,139.69675972301047,139.69679317006376,140.22689868998714,140.22689868998714,84.79743493697606,141.0460471099941,num_5,1,0.8165904469788074,None,85.61615310003981,,,,,,,,CBAS0004,001,2024-12-11_14h22.35.334,dsst,2024.1.4,2024-12-11 14h22.45.199398 -0500,
images/Inst_condrt.jpeg,images/Inst_condrt_v2.jpeg,rtrun1trials.xlsx,,,,,,,,,,,,0,0,0,0,0,1,1,0,,,,,,,,,,,,,,,,,,,,,,,,,,,,,,,,,,,,,,,,,,,,,,,,,,,,,,,,,,,,,,,,,,141.04682128003333,85.61631421395577,141.04705238505267,,,,,CBAS0004,001,2024-12-11_14h22.35.334,dsst,2024.1.4,2024-12-11 14h22.45.199398 -0500,
images/Inst_cond3.jpeg,images/Inst_cond3_v2.jpeg,set3run1trials.xlsx,images/Slide37.jpeg,৴,〜,num_5,2,num_8,1,6,0.8914751896980226,3,,0,0,0,0,0,2,2,2,0,0,0,8,148.45827992202248,,,,,,,,,,,,,,,,,,,,,,,,,,,,,,,,,,,,,,,141.04730566509534,141.81942109798547,141.81942109798547,147.69544595200568,num_2,5.872071279096417,None,92.26530402095523,148.44286321208347,148.45827992202248,149.37078546208795,149.33752086304594,149.33756122004706,149.37078546208795,149.37078546208795,93.94078103196807,150.58892560505774,num_5,1,1.200776954065077,None,95.15928789193276,,,,,,,,CBAS0004,001,2024-12-11_14h22.35.334,dsst,2024.1.4,2024-12-11 14h22.45.199398 -0500,
images/Inst_cond3.jpeg,images/Inst_cond3_v2.jpeg,set3run1trials.xlsx,images/Slide31.jpeg,϶,϶,num_8,1,num_5,2,4,1.6795463350974076,3,,0,0,0,0,0,2,2,2,0,1,1,2,150.60251769202296,,,,,,,,,,,,,,,,,,,,,,,,,,,,,,,,,,,,,,,,,,,,,,,150.59016608807724,150.60251769202296,152.31244007998612,152.27130864106584,152.27135801804252,152.31244007998612,152.31244007998612,96.88251903303899,153.4123879550025,num_8,1,1.0910110879922286,None,97.98244742304087,,,,,,,,CBAS0004,001,2024-12-11_14h22.35.334,dsst,2024.1.4,2024-12-11 14h22.45.199398 -0500,
images/Inst_cond3.jpeg,images/Inst_cond3_v2.jpeg,set3run1trials.xlsx,images/Slide36.jpeg,϶,϶,num_8,1,num_5,2,5,0.9663824923701582,3,,0,0,0,0,0,2,2,2,0,2,2,7,153.43002815602813,,,,,,,,,,,,,,,,,,,,,,,,,,,,,,,,,,,,,,,,,,,,,,,153.41334412503056,153.43002815602813,154.8278279210208,154.38722979009617,154.38728033704683,154.8278279210208,154.8278279210208,99.3977576670004,155.6596014869865,num_8,1,0.8156970710260794,None,100.22974814695772,,,,,,,,CBAS0004,001,2024-12-11_14h22.35.334,dsst,2024.1.4,2024-12-11 14h22.45.199398 -0500,
images/Inst_cond3.jpeg,images/Inst_cond3_v2.jpeg,set3run1trials.xlsx,images/Slide29.jpeg,⊂,⊂,num_8,1,num_5,2,4,1.6494517743944066,3,,0,0,0,0,0,2,2,2,0,3,3,0,155.67327122704592,,,,,,,,,,,,,,,,,,,,,,,,,,,,,,,,,,,,,,,,,,,,,,,155.66064832999837,155.67327122704592,157.34749931108672,157.30782259604894,157.30791957804468,157.34749931108672,157.34749931108672,101.91743818600662,158.10767256107647,num_8,1,0.744001421961002,None,102.6777586939279,,,,,,,,CBAS0004,001,2024-12-11_14h22.35.334,dsst,2024.1.4,2024-12-11 14h22.45.199398 -0500,
images/Inst_cond3.jpeg,images/Inst_cond3_v2.jpeg,set3run1trials.xlsx,images/Slide32.jpeg,৴,〜,num_5,2,num_8,1,4,1.2797644478420258,3,,0,0,0,0,0,2,2,2,0,4,4,3,158.12056115909945,,,,,,,,,,,,,,,,,,,,,,,,,,,,,,,,,,,,,,,,,,,,,,,158.10865321708843,158.12056115909945,159.78078058199026,159.3855328420177,159.38557433907408,159.78078058199026,159.78078058199026,104.35074100794736,160.62478882609867,num_5,1,0.8386928539257497,None,105.19475387001876,,,,,,,,CBAS0004,001,2024-12-11_14h22.35.334,dsst,2024.1.4,2024-12-11 14h22.45.199398 -0500,
images/Inst_cond3.jpeg,images/Inst_cond3_v2.jpeg,set3run1trials.xlsx,images/Slide38.jpeg,⋺,⟞,num_5,2,num_8,1,6,1.4873991843013923,3,,0,0,0,0,0,2,2,2,0,5,5,9,160.63400381908286,,,,,,,,,,,,,,,,,,,,,,,,,,,,,,,,,,,,,,,,,,,,,,,160.62574233103078,160.63400381908286,162.14163840701804,162.10500750306528,162.10502803104464,162.14163840701804,162.14163840701804,106.71158391796052,163.35552460700274,num_5,1,1.1978565270546824,None,107.92558839195408,,,,,,,,CBAS0004,001,2024-12-11_14h22.35.334,dsst,2024.1.4,2024-12-11 14h22.45.199398 -0500,
images/Inst_cond3.jpeg,images/Inst_cond3_v2.jpeg,set3run1trials.xlsx,images/Slide35.jpeg,⋊,⨪,num_8,1,num_5,2,5,0.7218498266848039,3,,0,0,0,0,0,2,2,2,0,6,6,6,163.36907880508807,,,,,,,,,,,,,,,,,,,,,,,,,,,,,,,,,,,,,,,,,,,,,,,163.35646116104908,163.36907880508807,164.11839584598783,164.08397133101244,164.0839995610295,164.11839584598783,164.11839584598783,108.68835279694758,165.2425116150407,num_8,1,1.1092447430128232,None,109.81260807497893,,,,,,,,CBAS0004,001,2024-12-11_14h22.35.334,dsst,2024.1.4,2024-12-11 14h22.45.199398 -0500,
images/Inst_cond3.jpeg,images/Inst_cond3_v2.jpeg,set3run1trials.xlsx,images/Slide34.jpeg,⊂,⊂,num_5,2,num_8,1,5,1.2572995822999768,3,,0,0,0,0,0,2,2,2,0,7,7,5,165.25653665605932,,,,,,,,,,,,,,,,,,,,,,,,,,,,,,,,,,,,,,,,,,,,,,,165.2434969790047,165.25653665605932,166.53891007904895,166.50017433601897,166.5002385530388,166.53891007904895,166.53891007904895,111.1089694550028,167.43948972807266,num_5,1,0.8965380790177733,None,112.00937869993504,,,,,,,,CBAS0004,001,2024-12-11_14h22.35.334,dsst,2024.1.4,2024-12-11 14h22.45.199398 -0500,
images/Inst_cond3.jpeg,images/Inst_cond3_v2.jpeg,set3run1trials.xlsx,images/Slide33.jpeg,⋺,⟞,num_5,2,num_8,1,5,1.0372817613612262,3,,0,0,0,0,0,2,2,2,0,8,8,4,167.44857955700718,,,,,,,,,,,,,,,,,,,,,,,,,,,,,,,,,,,,,,,,,,,,,,,167.4401232850505,167.44857955700718,168.5088296009926,168.47183786705136,168.47189051902387,168.5088296009926,168.5088296009926,113.07879850093741,169.18359963898547,num_5,1,0.6706348940497264,None,113.75352294102777,,,,,,,,CBAS0004,001,2024-12-11_14h22.35.334,dsst,2024.1.4,2024-12-11 14h22.45.199398 -0500,
images/Inst_cond3.jpeg,images/Inst_cond3_v2.jpeg,set3run1trials.xlsx,images/Slide30.jpeg,⋊,⨪,num_5,2,num_8,1,4,1.1480106635943503,3,,0,0,0,0,0,2,2,2,0,9,9,1,169.19231065001804,,,,,,,,,,,,,,,,,,,,,,,,,,,,,,,,,,,,,,,,,,,,,,,169.1843161280267,169.19231065001804,170.3697229430545,170.33204326301347,170.33209590800107,170.3697229430545,170.3697229430545,114.93983082997147,171.44851853803266,num_5,1,1.073774497024715,None,116.01836822403129,,,,,,,,CBAS0004,001,2024-12-11_14h22.35.334,dsst,2024.1.4,2024-12-11 14h22.45.199398 -0500,
images/Inst_cond3.jpeg,images/Inst_cond3_v2.jpeg,set3run1trials.xlsx,images/Slide39.jpeg,⪧,⇀,num_8,1,num_5,2,6,0.7747461405170645,3,,0,0,0,0,0,2,2,2,0,10,10,10,171.45850614306983,,,,,,,,,,,,,,,,,,,,,,,,,,,,,,,,,,,,,,,,,,,,,,,171.44911272602621,171.45850614306983,172.6645227840636,172.2189314160496,172.21897505002562,172.6645227840636,172.6645227840636,117.23445373796858,173.67093936400488,num_8,1,1.0029797300230712,None,118.24082795192953,,,,,,,,CBAS0004,001,2024-12-11_14h22.35.334,dsst,2024.1.4,2024-12-11 14h22.45.199398 -0500,
images/Inst_cond3.jpeg,images/Inst_cond3_v2.jpeg,set3run1trials.xlsx,images/Slide40.jpeg,⫧,⫧,num_8,1,num_5,2,6,1.303181976445416,3,,0,0,0,0,0,2,2,2,0,11,11,11,173.69668354303576,,,,,,,,,,,,,,,,,,,,,,,,,,,,,,,,,,,,,,,,,,,,,,,173.67162117001135,173.69668354303576,175.02566269005183,174.98756242205855,174.9875957890181,175.02566269005183,175.02566269005183,119.59564198192675,175.75836872600485,num_8,1,0.7138652389403433,None,120.32848414394539,,,,,,,,CBAS0004,001,2024-12-11_14h22.35.334,dsst,2024.1.4,2024-12-11 14h22.45.199398 -0500,
images/Inst_cond3.jpeg,images/Inst_cond3_v2.jpeg,set3run1trials.xlsx,,,,,,,,,,,,0,0,0,0,0,2,2,2,,,,,,,,,,,,,,,,,,,,,,,,,,,,,,,,,,,,,,,,,,,,,,,,,,,,,,,,,,,,,,,,,,175.75916246604174,120.32866020593792,175.75952951505315,,,,,CBAS0004,001,2024-12-11_14h22.35.334,dsst,2024.1.4,2024-12-11 14h22.45.199398 -0500,
images/Inst_cond1.jpeg,images/Inst_cond1_v2.jpeg,set1run1trials.xlsx,images/Slide20.jpeg,⊢,⩟,num_5,2,num_8,1,5,0.7862115301706457,1,nr,0,0,0,0,0,3,3,1,0,0,0,4,177.9228211150039,,,,,,,,,,,,,,,,,,,,,,,,,,,,,,,,,,,,,,,175.75987027201336,175.7978627330158,176.2521128760418,177.8886213049991,num_2,1.6313652079552412,None,122.45884041197132,177.91341442707926,177.9228211150039,178.73694317101035,178.6970380130224,178.69710260699503,178.73694317101035,178.73694317101035,123.30709210503846,179.7063550800085,num_5,1,0.9545813020085916,None,124.27674873301294,,,,,,,,CBAS0004,001,2024-12-11_14h22.35.334,dsst,2024.1.4,2024-12-11 14h22.45.199398 -0500,
images/Inst_cond1.jpeg,images/Inst_cond1_v2.jpeg,set1run1trials.xlsx,images/Slide18.jpeg,⪧,⪧,num_8,1,num_5,2,5,1.5436503085877287,1,nr,0,0,0,0,0,3,3,1,0,1,1,2,179.72010906098876,,,,,,,,,,,,,,,,,,,,,,,,,,,,,,,,,,,,,,,,,,,,,,,179.70764041505754,179.72010906098876,181.28828722902108,181.25275963905733,181.25279371405486,181.28828722902108,181.28828722902108,125.85827373398934,182.0799441540148,num_8,1,0.7872385120717809,None,126.64982105593663,,,,,,,,CBAS0004,001,2024-12-11_14h22.35.334,dsst,2024.1.4,2024-12-11 14h22.45.199398 -0500,
images/Inst_cond1.jpeg,images/Inst_cond1_v2.jpeg,set1run1trials.xlsx,images/Slide23.jpeg,⦽,⇃,num_5,2,num_8,1,5,0.8846614348488506,1,nr,0,0,0,0,0,3,3,1,0,2,2,7,182.0886316500837,,,,,,,,,,,,,,,,,,,,,,,,,,,,,,,,,,,,,,,,,,,,,,,182.0805744540412,182.0886316500837,182.99998390104156,182.96252298506442,182.9625563090667,182.99998390104156,182.99998390104156,127.5699796580011,183.70211207703687,num_5,1,0.6995860619936138,None,128.27214120794088,,,,,,,,CBAS0004,001,2024-12-11_14h22.35.334,dsst,2024.1.4,2024-12-11 14h22.45.199398 -0500,
images/Inst_cond1.jpeg,images/Inst_cond1_v2.jpeg,set1run1trials.xlsx,images/Slide16.jpeg,⨪,⨪,num_8,1,num_5,2,5,1.5692298036002124,1,nr,0,0,0,0,0,3,3,1,0,3,3,0,183.72746026108507,,,,,,,,,,,,,,,,,,,,,,,,,,,,,,,,,,,,,,,,,,,,,,,183.70290007104632,183.72746026108507,185.32500032009557,185.28479318902828,185.28484261105768,185.32500032009557,185.32500032009557,129.89509692403954,186.08451598207466,num_8,1,0.7425150509225205,None,130.65461325400975,,,,,,,,CBAS0004,001,2024-12-11_14h22.35.334,dsst,2024.1.4,2024-12-11 14h22.45.199398 -0500,
images/Inst_cond1.jpeg,images/Inst_cond1_v2.jpeg,set1run1trials.xlsx,images/Slide19.jpeg,∤,⊂,num_5,2,num_8,1,5,0.8712812019390699,1,nr,0,0,0,0,0,3,3,1,0,4,4,3,186.0985802949872,,,,,,,,,,,,,,,,,,,,,,,,,,,,,,,,,,,,,,,,,,,,,,,186.0855218920624,186.0985802949872,186.99891170707997,186.96143761801068,186.9614720660029,186.99891170707997,186.99891170707997,131.56912753998768,187.64119034807663,num_5,1,0.6285039320355281,None,132.21128761593718,,,,,,,,CBAS0004,001,2024-12-11_14h22.35.334,dsst,2024.1.4,2024-12-11 14h22.45.199398 -0500,
images/Inst_cond1.jpeg,images/Inst_cond1_v2.jpeg,set1run1trials.xlsx,images/Slide17.jpeg,⊂,⋺,num_5,2,num_8,1,5,1.2125828446722056,1,nr,0,0,0,0,0,3,3,1,0,5,5,1,187.65571446402464,,,,,,,,,,,,,,,,,,,,,,,,,,,,,,,,,,,,,,,,,,,,,,,187.6421689389972,187.65571446402464,188.89184604003094,188.85152920009568,188.85159771505278,188.89184604003094,188.89184604003094,133.46198167197872,189.52816417999566,num_5,1,0.6316539740655571,None,134.09808441402856,,,,,,,,CBAS0004,001,2024-12-11_14h22.35.334,dsst,2024.1.4,2024-12-11 14h22.45.199398 -0500,
images/Inst_cond1.jpeg,images/Inst_cond1_v2.jpeg,set1run1trials.xlsx,images/Slide21.jpeg,⧔,⧔,num_8,1,num_5,2,5,0.7133066574926744,1,nr,0,0,0,0,0,3,3,1,0,6,6,5,189.53751150309108,,,,,,,,,,,,,,,,,,,,,,,,,,,,,,,,,,,,,,,,,,,,,,,189.52883689000737,189.53751150309108,190.28315530600958,190.24410970404278,190.24416536802892,190.28315530600958,190.28315530600958,134.85334741696715,191.0341198820388,num_8,1,0.744250398944132,None,135.60437718499452,,,,,,,,CBAS0004,001,2024-12-11_14h22.35.334,dsst,2024.1.4,2024-12-11 14h22.45.199398 -0500,
images/Inst_cond1.jpeg,images/Inst_cond1_v2.jpeg,set1run1trials.xlsx,images/Slide24.jpeg,⋊,ᓇ,num_5,2,num_8,1,5,0.8798526038490365,1,nr,0,0,0,0,0,3,3,1,0,7,7,8,191.04247887805104,,,,,,,,,,,,,,,,,,,,,,,,,,,,,,,,,,,,,,,,,,,,,,,191.0353019880131,191.04247887805104,191.9465245300671,191.91018087102566,191.9102157690795,191.9465245300671,191.9465245300671,136.51661506399978,192.68435874208808,num_5,1,0.7209802640136331,None,137.25436974002514,,,,,,,,CBAS0004,001,2024-12-11_14h22.35.334,dsst,2024.1.4,2024-12-11 14h22.45.199398 -0500,
images/Inst_cond1.jpeg,images/Inst_cond1_v2.jpeg,set1run1trials.xlsx,images/Slide22.jpeg,⋋,⋋,num_8,1,num_5,2,5,1.040275927412608,1,nr,0,0,0,0,0,3,3,1,0,8,8,6,192.69753171806224,,,,,,,,,,,,,,,,,,,,,,,,,,,,,,,,,,,,,,,,,,,,,,,192.68521898100153,192.69753171806224,193.76239377202,193.72632629307918,193.72636032907758,193.76239377202,193.76239377202,138.33246409194544,194.3849263690645,num_8,1,0.6171173680340871,None,138.9550159969367,,,,,,,,CBAS0004,001,2024-12-11_14h22.35.334,dsst,2024.1.4,2024-12-11 14h22.45.199398 -0500,
images/Inst_cond1.jpeg,images/Inst_cond1_v2.jpeg,set1run1trials.xlsx,images/Slide27.jpeg,ᒲ,ᒲ,num_8,1,num_5,2,5,0.7591354373036487,1,nr,0,0,0,0,0,3,3,1,0,9,9,11,194.39902788004838,,,,,,,,,,,,,,,,,,,,,,,,,,,,,,,,,,,,,,,,,,,,,,,194.38600740209222,194.39902788004838,195.1803338440368,195.1422299540136,195.1422716540983,195.1803338440368,195.1803338440368,139.75048104894813,195.8895541970851,num_8,1,0.6951259919442236,None,140.4596891310066,,,,,,,,CBAS0004,001,2024-12-11_14h22.35.334,dsst,2024.1.4,2024-12-11 14h22.45.199398 -0500,
images/Inst_cond1.jpeg,images/Inst_cond1_v2.jpeg,set1run1trials.xlsx,images/Slide25.jpeg,৸,৸,num_8,1,num_5,2,5,1.3055587602032057,1,nr,0,0,0,0,0,3,3,1,0,10,10,9,195.90352062508464,,,,,,,,,,,,,,,,,,,,,,,,,,,,,,,,,,,,,,,,,,,,,,,195.89062281209044,195.90352062508464,197.23308074800298,197.19735587202013,197.19738402205985,197.23308074800298,197.23308074800298,141.80306943901815,197.99876797304023,num_8,1,0.7624354300787672,None,142.56868617702276,,,,,,,,CBAS0004,001,2024-12-11_14h22.35.334,dsst,2024.1.4,2024-12-11 14h22.45.199398 -0500,
images/Inst_cond1.jpeg,images/Inst_cond1_v2.jpeg,set1run1trials.xlsx,images/Slide26.jpeg,⟞,⩀,num_5,2,num_8,1,5,1.2400240498105215,1,nr,0,0,0,0,0,3,3,1,0,11,11,10,198.02348757802974,,,,,,,,,,,,,,,,,,,,,,,,,,,,,,,,,,,,,,,,,,,,,,,197.99944126000628,198.02348757802974,199.28693236003164,199.2485409800429,199.24859048204962,199.28693236003164,199.28693236003164,143.8571181530133,200.01115368201863,num_5,1,0.7085763560608029,None,144.58128678996582,,,,,,,,CBAS0004,001,2024-12-11_14h22.35.334,dsst,2024.1.4,2024-12-11 14h22.45.199398 -0500,
images/Inst_cond1.jpeg,images/Inst_cond1_v2.jpeg,set1run1trials.xlsx,,,,,,,,,,,,0,0,0,0,0,3,3,1,,,,,,,,,,,,,,,,,,,,,,,,,,,,,,,,,,,,,,,,,,,,,,,,,,,,,,,,,,,,,,,,,,200.01201884204056,144.58151672093663,200.01246072899085,,,,,CBAS0004,001,2024-12-11_14h22.35.334,dsst,2024.1.4,2024-12-11 14h22.45.199398 -0500,
,,,,,,,,,,,,,,0,0,0,0,,,,,,,,,,,,,,,,,,,,,,,,,,,,,,,,,,,,,,,,,,,,,,,,,,,,,,,,,,,,,,,,,,,,,,,,,,,,,CBAS0004,001,2024-12-11_14h22.35.334,dsst,2024.1.4,2024-12-11 14h22.45.199398 -0500,
images/Inst_condrt.jpeg,images/Inst_condrt_v2.jpeg,rtrun1trials.xlsx,images/Slide294.jpeg,⫔,⫔,num_8,f,num_5,j,9,1.3752653903815355,1,r,1,0,1,0,0,0,0,0,0,0,0,15,204.31572453700937,,,,,,,,,,,,,,,,,,,,,,,,,,,,,,,,,,,,,,,200.0259519070387,200.06029256305192,200.51201179309282,204.27967890701257,num_2,3.763483550050296,None,148.84967461100314,204.30699453805573,204.31572453700937,205.70988752599806,205.6786938230507,205.67872217006516,205.70988752599806,205.70988752599806,150.2799444659613,206.7147464849986,num_8,1,0.9896476130234078,None,151.28512528096326,,,,,,,,CBAS0004,001,2024-12-11_14h22.35.334,dsst,2024.1.4,2024-12-11 14h22.45.199398 -0500,
images/Inst_condrt.jpeg,images/Inst_condrt_v2.jpeg,rtrun1trials.xlsx,images/Slide286.jpeg,☆,☆,num_8,f,num_5,j,4,1.1618379427978303,1,r,1,0,1,0,0,0,0,0,0,1,1,7,206.72868915903382,,,,,,,,,,,,,,,,,,,,,,,,,,,,,,,,,,,,,,,,,,,,,,,206.71602049702778,206.72868915903382,207.91377150604967,207.8783062020084,207.87833965208847,207.91377150604967,207.91377150604967,152.48386424093042,208.64024601504207,num_8,1,0.7216610739706084,None,153.2101174769923,,,,,,,,CBAS0004,001,2024-12-11_14h22.35.334,dsst,2024.1.4,2024-12-11 14h22.45.199398 -0500,
images/Inst_condrt.jpeg,images/Inst_condrt_v2.jpeg,rtrun1trials.xlsx,images/Slide282.jpeg,⧶,⧶,num_8,f,num_5,j,2,1.5021462692940069,1,r,1,0,1,0,0,0,0,0,0,2,2,3,208.64927964902017,,,,,,,,,,,,,,,,,,,,,,,,,,,,,,,,,,,,,,,,,,,,,,,208.64087982103229,208.64927964902017,210.173183776089,210.13872758403886,210.13876224402338,210.173183776089,210.173183776089,154.74347690993454,211.0617660980206,num_8,1,0.8863553269766271,None,155.6317677210318,,,,,,,,CBAS0004,001,2024-12-11_14h22.35.334,dsst,2024.1.4,2024-12-11 14h22.45.199398 -0500,
images/Inst_condrt.jpeg,images/Inst_condrt_v2.jpeg,rtrun1trials.xlsx,images/Slide279.jpeg,∤,⦂,num_5,j,num_8,f,1,1.5494218162834268,1,r,1,0,1,0,0,0,0,0,0,3,3,0,211.0867451990489,,,,,,,,,,,,,,,,,,,,,,,,,,,,,,,,,,,,,,,,,,,,,,,211.06256903603207,211.0867451990489,212.6559150670655,212.62127358198632,212.62130719504785,212.6559150670655,212.6559150670655,157.22615399502683,213.4438736269949,num_5,1,0.7715630440507084,None,158.01396321703214,,,,,,,,CBAS0004,001,2024-12-11_14h22.35.334,dsst,2024.1.4,2024-12-11 14h22.45.199398 -0500,
images/Inst_condrt.jpeg,images/Inst_condrt_v2.jpeg,rtrun1trials.xlsx,images/Slide291.jpeg,⧦,⦧,num_5,j,num_8,f,8,1.0231097731195438,1,r,1,0,1,0,0,0,0,0,0,4,4,12,213.4577994280262,,,,,,,,,,,,,,,,,,,,,,,,,,,,,,,,,,,,,,,,,,,,,,,213.44484982604627,213.4577994280262,214.50297470507212,214.47059804701712,214.47062641207594,214.50297470507212,214.50297470507212,159.073090158985,215.22148306202143,num_5,1,0.716512518003583,None,159.79160827002488,,,,,,,,CBAS0004,001,2024-12-11_14h22.35.334,dsst,2024.1.4,2024-12-11 14h22.45.199398 -0500,
images/Inst_condrt.jpeg,images/Inst_condrt_v2.jpeg,rtrun1trials.xlsx,images/Slide287.jpeg,⊐,⌠,num_5,j,num_8,f,6,1.6939989976665726,1,r,1,0,1,0,0,0,0,0,0,5,5,8,215.2316737479996,,,,,,,,,,,,,,,,,,,,,,,,,,,,,,,,,,,,,,,,,,,,,,,215.22242256207392,215.2316737479996,216.94492805702612,216.90949041501153,216.9095710280817,216.94492805702612,216.94492805702612,161.51528132800013,217.6594373030821,num_5,1,0.6984987390460446,None,162.22955902898684,,,,,,,,CBAS0004,001,2024-12-11_14h22.35.334,dsst,2024.1.4,2024-12-11 14h22.45.199398 -0500,
images/Inst_condrt.jpeg,images/Inst_condrt_v2.jpeg,rtrun1trials.xlsx,images/Slide285.jpeg,Ω,ℇ,num_5,j,num_8,f,4,1.1231575889274805,1,r,1,0,1,0,0,0,0,0,0,6,6,6,217.67300054407679,,,,,,,,,,,,,,,,,,,,,,,,,,,,,,,,,,,,,,,,,,,,,,,217.66051800304558,217.67300054407679,218.82074046204798,218.7863986470038,218.78643287508748,218.82074046204798,218.82074046204798,163.39086591894738,219.6754960390972,num_5,1,0.8388156360015273,None,164.24558303400408,,,,,,,,CBAS0004,001,2024-12-11_14h22.35.334,dsst,2024.1.4,2024-12-11 14h22.45.199398 -0500,
images/Inst_condrt.jpeg,images/Inst_condrt_v2.jpeg,rtrun1trials.xlsx,images/Slide288.jpeg,⋗,⋗,num_8,f,num_5,j,6,0.9511621996229495,1,r,1,0,1,0,0,0,0,0,0,7,7,9,219.6894732590299,,,,,,,,,,,,,,,,,,,,,,,,,,,,,,,,,,,,,,,,,,,,,,,219.67648010200355,219.6894732590299,220.6635464070132,220.6352376320865,220.63525946298614,220.6635464070132,220.6635464070132,165.23363638599403,221.27532434801105,num_8,1,0.5959682750981301,None,165.84542613802478,,,,,,,,CBAS0004,001,2024-12-11_14h22.35.334,dsst,2024.1.4,2024-12-11 14h22.45.199398 -0500,
images/Inst_condrt.jpeg,images/Inst_condrt_v2.jpeg,rtrun1trials.xlsx,images/Slide348.jpeg,⨵,⨵,num_8,f,num_5,j,5,1.033895330594949,1,r,1,0,1,0,0,0,0,0,0,8,8,17,221.28902543603908,,,,,,,,,,,,,,,,,,,,,,,,,,,,,,,,,,,,,,,,,,,,,,,221.27632139401976,221.28902543603908,222.336093569058,222.3073615990579,222.30738089501392,222.336093569058,222.336093569058,166.9060633269837,223.02803335699718,num_8,1,0.6755863348953426,None,167.59810943796765,,,,,,,,CBAS0004,001,2024-12-11_14h22.35.334,dsst,2024.1.4,2024-12-11 14h22.45.199398 -0500,
images/Inst_condrt.jpeg,images/Inst_condrt_v2.jpeg,rtrun1trials.xlsx,images/Slide283.jpeg,⧫,⧞,num_5,j,num_8,f,3,1.1690006958362607,1,r,1,0,1,0,0,0,0,0,0,9,9,4,223.04137248708867,,,,,,,,,,,,,,,,,,,,,,,,,,,,,,,,,,,,,,,,,,,,,,,223.02900111302733,223.04137248708867,224.23462949506938,224.2014624470612,224.20149663905613,224.23462949506938,224.23462949506938,168.80473250499927,224.99073276808485,num_5,1,0.7528966470854357,None,169.56068532099016,,,,,,,,CBAS0004,001,2024-12-11_14h22.35.334,dsst,2024.1.4,2024-12-11 14h22.45.199398 -0500,
images/Inst_condrt.jpeg,images/Inst_condrt_v2.jpeg,rtrun1trials.xlsx,images/Slide293.jpeg,⦢,⦶,num_5,j,num_8,f,9,0.992989949508859,1,r,1,0,1,0,0,0,0,0,0,10,10,14,225.0162487460766,,,,,,,,,,,,,,,,,,,,,,,,,,,,,,,,,,,,,,,,,,,,,,,224.9914940650342,225.0162487460766,226.0305198840797,226.00013840803877,226.00016178004444,226.0305198840797,226.0305198840797,170.6006115709897,226.65762633807026,num_5,1,0.6209241340402514,None,171.22752670303453,,,,,,,,CBAS0004,001,2024-12-11_14h22.35.334,dsst,2024.1.4,2024-12-11 14h22.45.199398 -0500,
images/Inst_condrt.jpeg,images/Inst_condrt_v2.jpeg,rtrun1trials.xlsx,images/Slide280.jpeg,⫪,⫪,num_8,f,num_5,j,1,1.2152819946529974,1,r,1,0,1,0,0,0,0,0,0,11,11,1,226.66611935500987,,,,,,,,,,,,,,,,,,,,,,,,,,,,,,,,,,,,,,,,,,,,,,,226.65844418108463,226.66611935500987,227.8994511780329,227.86660317506175,227.86662667209748,227.8994511780329,227.8994511780329,172.46968124003615,228.67401266505476,num_8,1,0.7679805110674351,None,173.24405542202294,,,,,,,,CBAS0004,001,2024-12-11_14h22.35.334,dsst,2024.1.4,2024-12-11 14h22.45.199398 -0500,
images/Inst_condrt.jpeg,images/Inst_condrt_v2.jpeg,rtrun1trials.xlsx,images/Slide281.jpeg,⟖,⦾,num_5,j,num_8,f,2,1.667712943772069,1,r,1,0,1,0,0,0,0,0,0,12,12,2,228.68202580907382,,,,,,,,,,,,,,,,,,,,,,,,,,,,,,,,,,,,,,,,,,,,,,,228.6750615760684,228.68202580907382,230.36471381399315,230.33292699605227,230.33295454608742,230.36471381399315,230.36471381399315,174.93489226698875,231.0403882630635,num_5,1,0.6707751320209354,None,175.6102918740362,,,,,,,,CBAS0004,001,2024-12-11_14h22.35.334,dsst,2024.1.4,2024-12-11 14h22.45.199398 -0500,
images/Inst_condrt.jpeg,images/Inst_condrt_v2.jpeg,rtrun1trials.xlsx,images/Slide290.jpeg,⩳,⩳,num_8,f,num_5,j,7,0.9159016504151306,1,r,1,0,1,0,0,0,0,0,0,13,13,11,231.064554882003,,,,,,,,,,,,,,,,,,,,,,,,,,,,,,,,,,,,,,,,,,,,,,,231.04115704703145,231.064554882003,231.9991993760923,231.96550428203773,231.96554199699312,231.9991993760923,231.9991993760923,176.56944597500842,232.87546838400885,num_8,1,0.860321611049585,None,177.44555409403984,,,,,,,,CBAS0004,001,2024-12-11_14h22.35.334,dsst,2024.1.4,2024-12-11 14h22.45.199398 -0500,
images/Inst_condrt.jpeg,images/Inst_condrt_v2.jpeg,rtrun1trials.xlsx,images/Slide292.jpeg,⧢,⧢,num_8,f,num_5,j,8,1.083226946360256,1,r,1,0,1,0,0,0,0,0,0,14,14,13,232.88879427302163,,,,,,,,,,,,,,,,,,,,,,,,,,,,,,,,,,,,,,,,,,,,,,,232.87646170100197,232.88879427302163,234.00002935808152,233.96564732503612,233.96568118105642,234.00002935808152,234.00002935808152,178.57035491697025,234.77155463409144,num_8,1,0.7553919339552522,None,179.34166781394742,,,,,,,,CBAS0004,001,2024-12-11_14h22.35.334,dsst,2024.1.4,2024-12-11 14h22.45.199398 -0500,
images/Inst_condrt.jpeg,images/Inst_condrt_v2.jpeg,rtrun1trials.xlsx,images/Slide284.jpeg,▸,▸,num_8,f,num_5,j,3,1.2777724365695504,1,r,1,0,1,0,0,0,0,0,0,15,15,5,234.7851793860318,,,,,,,,,,,,,,,,,,,,,,,,,,,,,,,,,,,,,,,,,,,,,,,234.77259542699903,234.7851793860318,236.07846427103505,236.04742388403974,236.04744244599715,236.07846427103505,236.07846427103505,180.6485445239814,236.8157399360789,num_8,1,0.733066638931632,None,181.3856615689583,,,,,,,,CBAS0004,001,2024-12-11_14h22.35.334,dsst,2024.1.4,2024-12-11 14h22.45.199398 -0500,
images/Inst_condrt.jpeg,images/Inst_condrt_v2.jpeg,rtrun1trials.xlsx,images/Slide347.jpeg,⪤,⩫,num_5,j,num_8,f,5,1.1153212278220153,1,r,1,0,1,0,0,0,0,0,0,16,16,16,236.82467124203686,,,,,,,,,,,,,,,,,,,,,,,,,,,,,,,,,,,,,,,,,,,,,,,236.81645520799793,236.82467124203686,237.95942563703284,237.93042456405237,237.9304525560001,237.95942563703284,237.95942563703284,182.5294906620402,238.73928023909684,num_5,1,0.7641543570207432,None,183.30936869094148,,,,,,,,CBAS0004,001,2024-12-11_14h22.35.334,dsst,2024.1.4,2024-12-11 14h22.45.199398 -0500,
images/Inst_condrt.jpeg,images/Inst_condrt_v2.jpeg,rtrun1trials.xlsx,images/Slide289.jpeg,⊹,⋈,num_5,j,num_8,f,7,1.3632837382230147,1,r,1,0,1,0,0,0,0,0,0,17,17,10,238.7531117880717,,,,,,,,,,,,,,,,,,,,,,,,,,,,,,,,,,,,,,,,,,,,,,,238.74025191704277,238.7531117880717,240.13943127007224,240.10316523804795,240.1031987760216,240.13943127007224,240.13943127007224,184.7097298159497,240.93917483708356,num_5,1,0.7841557849897072,None,185.50921125197783,,,,,,,,CBAS0004,001,2024-12-11_14h22.35.334,dsst,2024.1.4,2024-12-11 14h22.45.199398 -0500,
images/Inst_condrt.jpeg,images/Inst_condrt_v2.jpeg,rtrun1trials.xlsx,,,,,,,,,,,,1,0,1,0,0,0,0,0,,,,,,,,,,,,,,,,,,,,,,,,,,,,,,,,,,,,,,,,,,,,,,,,,,,,,,,,,,,,,,,,,,240.93988381698728,185.5093802739866,240.9404241000302,,,,,CBAS0004,001,2024-12-11_14h22.35.334,dsst,2024.1.4,2024-12-11 14h22.45.199398 -0500,
images/Inst_cond3.jpeg,images/Inst_cond3_v2.jpeg,set3run1trials.xlsx,images/Slide35.jpeg,⋊,⨪,num_8,1,num_5,2,5,0.7218498266848039,3,,1,0,1,0,0,1,1,2,0,0,0,6,243.94412584009115,,,,,,,,,,,,,,,,,,,,,,,,,,,,,,,,,,,,,,,240.94074014702346,240.97907887701876,241.43481922801584,243.913282750058,num_2,2.472734356066212,None,188.48312043899205,243.93498862208799,243.94412584009115,244.68195898004342,244.649598963093,244.64961952506565,244.68195898004342,244.68195898004342,189.25204727600794,245.66332130203955,num_8,1,0.9775173349771649,None,190.23343089292757,,,,,,,,CBAS0004,001,2024-12-11_14h22.35.334,dsst,2024.1.4,2024-12-11 14h22.45.199398 -0500,
images/Inst_cond3.jpeg,images/Inst_cond3_v2.jpeg,set3run1trials.xlsx,images/Slide33.jpeg,⋺,⟞,num_5,2,num_8,1,5,1.0372817613612262,3,,1,0,1,0,0,1,1,2,0,1,1,4,245.6716961170314,,,,,,,,,,,,,,,,,,,,,,,,,,,,,,,,,,,,,,,,,,,,,,,245.664241082035,245.6716961170314,246.72232362208888,246.69462818605825,246.69464793708175,246.72232362208888,246.72232362208888,191.2925059479894,247.5357323770877,num_5,1,0.809137511998415,None,192.10562717798166,,,,,,,,CBAS0004,001,2024-12-11_14h22.35.334,dsst,2024.1.4,2024-12-11 14h22.45.199398 -0500,
images/Inst_cond3.jpeg,images/Inst_cond3_v2.jpeg,set3run1trials.xlsx,images/Slide31.jpeg,϶,϶,num_8,1,num_5,2,4,1.6795463350974076,3,,1,0,1,0,0,1,1,2,0,2,2,2,247.5602806720417,,,,,,,,,,,,,,,,,,,,,,,,,,,,,,,,,,,,,,,,,,,,,,,247.53640063502826,247.5602806720417,249.26234325300902,249.22813700907864,249.22817938704975,249.26234325300902,249.26234325300902,193.83252406399697,250.25702430005185,num_8,1,0.9810921719763428,None,194.8273786419304,,,,,,,,CBAS0004,001,2024-12-11_14h22.35.334,dsst,2024.1.4,2024-12-11 14h22.45.199398 -0500,
images/Inst_cond3.jpeg,images/Inst_cond3_v2.jpeg,set3run1trials.xlsx,images/Slide30.jpeg,⋊,⨪,num_5,2,num_8,1,4,1.1480106635943503,3,,1,0,1,0,0,1,1,2,0,3,3,1,250.27268411009572,,,,,,,,,,,,,,,,,,,,,,,,,,,,,,,,,,,,,,,,,,,,,,,250.2582700200146,250.27268411009572,251.44486142206006,251.41103253909387,251.41106573399156,251.44486142206006,251.44486142206006,196.01504707103595,252.25567404099274,num_5,1,0.7906494600465521,None,196.8258962589316,,,,,,,,CBAS0004,001,2024-12-11_14h22.35.334,dsst,2024.1.4,2024-12-11 14h22.45.199398 -0500,
images/Inst_cond3.jpeg,images/Inst_cond3_v2.jpeg,set3run1trials.xlsx,images/Slide36.jpeg,϶,϶,num_8,1,num_5,2,5,0.9663824923701582,3,,1,0,1,0,0,1,1,2,0,4,4,7,252.26961443806067,,,,,,,,,,,,,,,,,,,,,,,,,,,,,,,,,,,,,,,,,,,,,,,252.25688333204016,252.26961443806067,253.26540544210002,253.22718111309223,253.22721699101385,253.26540544210002,253.26540544210002,197.83564840594772,254.29461500106845,num_5,0,1.0260904099559411,None,198.8645073559601,,,,,,,,CBAS0004,001,2024-12-11_14h22.35.334,dsst,2024.1.4,2024-12-11 14h22.45.199398 -0500,
images/Inst_cond3.jpeg,images/Inst_cond3_v2.jpeg,set3run1trials.xlsx,images/Slide37.jpeg,৴,〜,num_5,2,num_8,1,6,0.8914751896980226,3,,1,0,1,0,0,1,1,2,0,5,5,8,254.30330519098788,,,,,,,,,,,,,,,,,,,,,,,,,,,,,,,,,,,,,,,,,,,,,,,254.29525908106007,254.30330519098788,255.21226405608468,255.18168441101443,255.18171205208637,255.21226405608468,255.21226405608468,199.78241323900875,256.19234455702826,num_5,1,0.975256794015877,None,200.76225303299725,,,,,,,,CBAS0004,001,2024-12-11_14h22.35.334,dsst,2024.1.4,2024-12-11 14h22.45.199398 -0500,
images/Inst_cond3.jpeg,images/Inst_cond3_v2.jpeg,set3run1trials.xlsx,images/Slide40.jpeg,⫧,⫧,num_8,1,num_5,2,6,1.303181976445416,3,,1,0,1,0,0,1,1,2,0,6,6,11,256.2019987270469,,,,,,,,,,,,,,,,,,,,,,,,,,,,,,,,,,,,,,,,,,,,,,,256.19316926109605,256.2019987270469,257.53299159999005,257.492478935048,257.49253461207263,257.53299159999005,257.53299159999005,202.10323625896126,258.40881245199125,num_8,1,0.8705305259209126,None,202.9787647969788,,,,,,,,CBAS0004,001,2024-12-11_14h22.35.334,dsst,2024.1.4,2024-12-11 14h22.45.199398 -0500,
images/Inst_cond3.jpeg,images/Inst_cond3_v2.jpeg,set3run1trials.xlsx,images/Slide38.jpeg,⋺,⟞,num_5,2,num_8,1,6,1.4873991843013923,3,,1,0,1,0,0,1,1,2,0,7,7,9,258.41938006400596,,,,,,,,,,,,,,,,,,,,,,,,,,,,,,,,,,,,,,,,,,,,,,,258.40955214900896,258.41938006400596,259.92407606809866,259.8918629660038,259.89189167600125,259.92407606809866,259.92407606809866,204.49427542102057,260.72161908401176,num_5,1,0.7833649669773877,None,205.2917084370274,,,,,,,,CBAS0004,001,2024-12-11_14h22.35.334,dsst,2024.1.4,2024-12-11 14h22.45.199398 -0500,
images/Inst_cond3.jpeg,images/Inst_cond3_v2.jpeg,set3run1trials.xlsx,images/Slide34.jpeg,⊂,⊂,num_5,2,num_8,1,5,1.2572995822999768,3,,1,0,1,0,0,1,1,2,0,8,8,5,260.73634660907555,,,,,,,,,,,,,,,,,,,,,,,,,,,,,,,,,,,,,,,,,,,,,,,260.72261396900285,260.73634660907555,262.01238289498724,261.9802615380613,261.9802886589896,262.01238289498724,262.01238289498724,206.58245902892668,262.88389871106483,num_5,1,0.8551402359735221,None,207.45399320300203,,,,,,,,CBAS0004,001,2024-12-11_14h22.35.334,dsst,2024.1.4,2024-12-11 14h22.45.199398 -0500,
images/Inst_cond3.jpeg,images/Inst_cond3_v2.jpeg,set3run1trials.xlsx,images/Slide39.jpeg,⪧,⇀,num_8,1,num_5,2,6,0.7747461405170645,3,,1,0,1,0,0,1,1,2,0,9,9,10,262.8975010929862,,,,,,,,,,,,,,,,,,,,,,,,,,,,,,,,,,,,,,,,,,,,,,,262.8849427549867,262.8975010929862,263.69368702499196,263.65768279798795,263.65772652905434,263.69368702499196,263.69368702499196,208.26377241197042,264.7800223759841,num_8,1,1.0698274580063298,None,209.35003535600845,,,,,,,,CBAS0004,001,2024-12-11_14h22.35.334,dsst,2024.1.4,2024-12-11 14h22.45.199398 -0500,
images/Inst_cond3.jpeg,images/Inst_cond3_v2.jpeg,set3run1trials.xlsx,images/Slide29.jpeg,⊂,⊂,num_8,1,num_5,2,4,1.6494517743944066,3,,1,0,1,0,0,1,1,2,0,10,10,0,264.794013690087,,,,,,,,,,,,,,,,,,,,,,,,,,,,,,,,,,,,,,,,,,,,,,,264.780900785001,264.794013690087,266.46160452708136,266.4292072800454,266.429235004005,266.46160452708136,266.46160452708136,211.031802951009,267.2972836440895,num_8,1,0.8299199159955606,None,211.8673368979944,,,,,,,,CBAS0004,001,2024-12-11_14h22.35.334,dsst,2024.1.4,2024-12-11 14h22.45.199398 -0500,
images/Inst_cond3.jpeg,images/Inst_cond3_v2.jpeg,set3run1trials.xlsx,images/Slide32.jpeg,৴,〜,num_5,2,num_8,1,4,1.2797644478420258,3,,1,0,1,0,0,1,1,2,0,11,11,3,267.3213860200485,,,,,,,,,,,,,,,,,,,,,,,,,,,,,,,,,,,,,,,,,,,,,,,267.29813143098727,267.3213860200485,268.62185893498827,268.58880428702105,268.58883190504275,268.62185893498827,268.62185893498827,213.1920821479289,269.4962240160676,num_5,1,0.8695840591099113,None,214.06609110196587,,,,,,,,CBAS0004,001,2024-12-11_14h22.35.334,dsst,2024.1.4,2024-12-11 14h22.45.199398 -0500,
images/Inst_cond3.jpeg,images/Inst_cond3_v2.jpeg,set3run1trials.xlsx,,,,,,,,,,,,1,0,1,0,0,1,1,2,,,,,,,,,,,,,,,,,,,,,,,,,,,,,,,,,,,,,,,,,,,,,,,,,,,,,,,,,,,,,,,,,,269.49671985104214,214.06621108599938,269.49711373704486,,,,,CBAS0004,001,2024-12-11_14h22.35.334,dsst,2024.1.4,2024-12-11 14h22.45.199398 -0500,
images/Inst_cond1.jpeg,images/Inst_cond1_v2.jpeg,set1run1trials.xlsx,images/Slide21.jpeg,⧔,⧔,num_8,1,num_5,2,5,0.7133066574926744,1,nr,1,0,1,0,0,2,2,1,0,0,0,5,273.3298529480817,,,,,,,,,,,,,,,,,,,,,,,,,,,,,,,,,,,,,,,269.4974495980423,269.5428967480548,269.99363713909406,273.2953928800998,num_2,3.2978873449610546,None,217.86524182895664,273.320440376061,273.3298529480817,274.0609096090775,274.02790504402947,274.0279402839951,274.0609096090775,274.0609096090775,218.63102429895662,274.74745809601154,num_8,1,0.6706393810454756,None,219.31781045196112,,,,,,,,CBAS0004,001,2024-12-11_14h22.35.334,dsst,2024.1.4,2024-12-11 14h22.45.199398 -0500,
images/Inst_cond1.jpeg,images/Inst_cond1_v2.jpeg,set1run1trials.xlsx,images/Slide16.jpeg,⨪,⨪,num_8,1,num_5,2,5,1.5692298036002124,1,nr,1,0,1,0,0,2,2,1,0,1,1,0,274.76087015506346,,,,,,,,,,,,,,,,,,,,,,,,,,,,,,,,,,,,,,,,,,,,,,,274.74871364899445,274.76087015506346,276.3532250360586,276.32080953603145,276.32083723903634,276.3532250360586,276.3532250360586,220.92346901993733,277.0757543350337,num_8,1,0.706241169013083,None,221.64605892496184,,,,,,,,CBAS0004,001,2024-12-11_14h22.35.334,dsst,2024.1.4,2024-12-11 14h22.45.199398 -0500,
images/Inst_cond1.jpeg,images/Inst_cond1_v2.jpeg,set1run1trials.xlsx,images/Slide23.jpeg,⦽,⇃,num_5,2,num_8,1,5,0.8846614348488506,1,nr,1,0,1,0,0,2,2,1,0,2,2,7,277.090618508053,,,,,,,,,,,,,,,,,,,,,,,,,,,,,,,,,,,,,,,,,,,,,,,277.0769982630154,277.090618508053,277.99464888998773,277.9599362760782,277.95997932506725,277.99464888998773,277.99464888998773,222.56489235896152,278.66073392808903,num_5,1,0.6488605380291119,None,223.23080264299642,,,,,,,,CBAS0004,001,2024-12-11_14h22.35.334,dsst,2024.1.4,2024-12-11 14h22.45.199398 -0500,
images/Inst_cond1.jpeg,images/Inst_cond1_v2.jpeg,set1run1trials.xlsx,images/Slide20.jpeg,⊢,⩟,num_5,2,num_8,1,5,0.7862115301706457,1,nr,1,0,1,0,0,2,2,1,0,3,3,4,278.67393395106774,,,,,,,,,,,,,,,,,,,,,,,,,,,,,,,,,,,,,,,,,,,,,,,278.6616904910188,278.67393395106774,279.4871393600479,279.45341352105606,279.4534478810383,279.4871393600479,279.4871393600479,224.05736944498494,280.2540125390515,num_5,1,0.7643191909883171,None,224.82390282303095,,,,,,,,CBAS0004,001,2024-12-11_14h22.35.334,dsst,2024.1.4,2024-12-11 14h22.45.199398 -0500,
images/Inst_cond1.jpeg,images/Inst_cond1_v2.jpeg,set1run1trials.xlsx,images/Slide22.jpeg,⋋,⋋,num_8,1,num_5,2,5,1.040275927412608,1,nr,1,0,1,0,0,2,2,1,0,4,4,6,280.26347640308086,,,,,,,,,,,,,,,,,,,,,,,,,,,,,,,,,,,,,,,,,,,,,,,280.25468098104466,280.26347640308086,281.3278013970703,281.2918333350681,281.291867349064,281.3278013970703,281.3278013970703,225.89797950501088,282.05025199998636,num_8,1,0.7077104119816795,None,226.62034851196222,,,,,,,,CBAS0004,001,2024-12-11_14h22.35.334,dsst,2024.1.4,2024-12-11 14h22.45.199398 -0500,
images/Inst_cond1.jpeg,images/Inst_cond1_v2.jpeg,set1run1trials.xlsx,images/Slide25.jpeg,৸,৸,num_8,1,num_5,2,5,1.3055587602032057,1,nr,1,0,1,0,0,2,2,1,0,5,5,9,282.06474548904225,,,,,,,,,,,,,,,,,,,,,,,,,,,,,,,,,,,,,,,,,,,,,,,282.05122896202374,282.06474548904225,283.389792763046,283.3573664620053,283.3573929180857,283.389792763046,283.389792763046,227.9600978239905,284.09231612307485,num_8,1,0.6856551300734282,None,228.6627332000062,,,,,,,,CBAS0004,001,2024-12-11_14h22.35.334,dsst,2024.1.4,2024-12-11 14h22.45.199398 -0500,
images/Inst_cond1.jpeg,images/Inst_cond1_v2.jpeg,set1run1trials.xlsx,images/Slide18.jpeg,⪧,⪧,num_8,1,num_5,2,5,1.5436503085877287,1,nr,1,0,1,0,0,2,2,1,0,6,6,2,284.1060714860214,,,,,,,,,,,,,,,,,,,,,,,,,,,,,,,,,,,,,,,,,,,,,,,284.0936428810237,284.1060714860214,285.66789318202063,285.63495608698577,285.6349895000458,285.66789318202063,285.66789318202063,230.23808611696586,286.2919688500697,num_8,1,0.6075278199277818,None,230.8621247379342,,,,,,,,CBAS0004,001,2024-12-11_14h22.35.334,dsst,2024.1.4,2024-12-11 14h22.45.199398 -0500,
images/Inst_cond1.jpeg,images/Inst_cond1_v2.jpeg,set1run1trials.xlsx,images/Slide19.jpeg,∤,⊂,num_5,2,num_8,1,5,0.8712812019390699,1,nr,1,0,1,0,0,2,2,1,0,7,7,3,286.3070276370272,,,,,,,,,,,,,,,,,,,,,,,,,,,,,,,,,,,,,,,,,,,,,,,286.29317304107826,286.3070276370272,287.20113195001613,287.16771385702305,287.1677481420338,287.20113195001613,287.20113195001613,231.77165908401366,288.05946625198703,num_5,1,0.8423614100320265,None,232.6295430409955,,,,,,,,CBAS0004,001,2024-12-11_14h22.35.334,dsst,2024.1.4,2024-12-11 14h22.45.199398 -0500,
images/Inst_cond1.jpeg,images/Inst_cond1_v2.jpeg,set1run1trials.xlsx,images/Slide26.jpeg,⟞,⩀,num_5,2,num_8,1,5,1.2400240498105215,1,nr,1,0,1,0,0,2,2,1,0,8,8,10,288.0734646030469,,,,,,,,,,,,,,,,,,,,,,,,,,,,,,,,,,,,,,,,,,,,,,,288.0604284120491,288.0734646030469,289.33102030702867,289.29949630599003,289.29953108204063,289.33102030702867,289.33102030702867,233.90145548596047,290.2590436800383,num_5,1,0.9124676981009543,None,234.82922896696255,,,,,,,,CBAS0004,001,2024-12-11_14h22.35.334,dsst,2024.1.4,2024-12-11 14h22.45.199398 -0500,
images/Inst_cond1.jpeg,images/Inst_cond1_v2.jpeg,set1run1trials.xlsx,images/Slide17.jpeg,⊂,⋺,num_5,2,num_8,1,5,1.2125828446722056,1,nr,1,0,1,0,0,2,2,1,0,9,9,1,290.2729262930807,,,,,,,,,,,,,,,,,,,,,,,,,,,,,,,,,,,,,,,,,,,,,,,290.2601116769947,290.2729262930807,291.5002171600936,291.4707391540287,291.4707638419932,291.5002171600936,291.5002171600936,236.070443877019,292.59938077803236,num_5,1,1.0713067461038008,None,237.16925518296193,,,,,,,,CBAS0004,001,2024-12-11_14h22.35.334,dsst,2024.1.4,2024-12-11 14h22.45.199398 -0500,
images/Inst_cond1.jpeg,images/Inst_cond1_v2.jpeg,set1run1trials.xlsx,images/Slide24.jpeg,⋊,ᓇ,num_5,2,num_8,1,5,0.8798526038490365,1,nr,1,0,1,0,0,2,2,1,0,10,10,8,292.614312097081,,,,,,,,,,,,,,,,,,,,,,,,,,,,,,,,,,,,,,,,,,,,,,,292.6000015240861,292.614312097081,293.51332050107885,293.48240772704594,293.48243506101426,293.51332050107885,293.51332050107885,238.0836657169275,294.2161190350307,num_5,1,0.6982030540239066,None,238.78607591497712,,,,,,,,CBAS0004,001,2024-12-11_14h22.35.334,dsst,2024.1.4,2024-12-11 14h22.45.199398 -0500,
images/Inst_cond1.jpeg,images/Inst_cond1_v2.jpeg,set1run1trials.xlsx,images/Slide27.jpeg,ᒲ,ᒲ,num_8,1,num_5,2,5,0.7591354373036487,1,nr,1,0,1,0,0,2,2,1,0,11,11,11,294.2255439790897,,,,,,,,,,,,,,,,,,,,,,,,,,,,,,,,,,,,,,,,,,,,,,,294.2168613730464,294.2255439790897,295.0069041410461,294.9714302350767,294.9714640460443,295.0069041410461,295.0069041410461,239.57708497997373,295.6907019109931,num_8,1,0.6685764939757064,None,240.2607921420131,,,,,,,,CBAS0004,001,2024-12-11_14h22.35.334,dsst,2024.1.4,2024-12-11 14h22.45.199398 -0500,
images/Inst_cond1.jpeg,images/Inst_cond1_v2.jpeg,set1run1trials.xlsx,,,,,,,,,,,,1,0,1,0,0,2,2,1,,,,,,,,,,,,,,,,,,,,,,,,,,,,,,,,,,,,,,,,,,,,,,,,,,,,,,,,,,,,,,,,,,295.69146981602535,240.26096876699012,295.6921442099847,,,,,CBAS0004,001,2024-12-11_14h22.35.334,dsst,2024.1.4,2024-12-11 14h22.45.199398 -0500,
images/Inst_cond9.jpeg,images/Inst_cond9_v2.jpeg,set9run1trials.xlsx,images/Slide72.jpeg,⦒,⦒,num_8,1,num_5,2,4,1.040959215279409,9,,1,0,1,0,0,3,3,3,0,0,0,4,301.386565205059,,,,,,,,,,,,,,,,,,,,,,,,,,,,,,,,,,,,,,,295.6925393760903,295.7301454960834,296.1861365210498,301.35438559099566,num_2,5.1613522180123255,None,245.924317935016,301.37733439798467,301.386565205059,302.4489442250924,302.4135152690578,302.4135536440881,302.4489442250924,302.4489442250924,247.01926895498764,303.65461629407946,num_8,1,1.2025735180359334,None,248.2247947580181,,,,,,,,CBAS0004,001,2024-12-11_14h22.35.334,dsst,2024.1.4,2024-12-11 14h22.45.199398 -0500,
images/Inst_cond9.jpeg,images/Inst_cond9_v2.jpeg,set9run1trials.xlsx,images/Slide68.jpeg,⦊,⦊,num_8,1,num_5,2,1,1.2365525527031083,9,,1,0,1,0,0,3,3,3,0,1,1,0,303.6781399080064,,,,,,,,,,,,,,,,,,,,,,,,,,,,,,,,,,,,,,,,,,,,,,,303.6557592940517,303.6781399080064,304.93011697998736,304.8998501810711,304.8998683850514,304.93011697998736,304.93011697998736,249.50032859994099,305.97216451901477,num_8,1,1.0254123399499804,None,250.54224966303445,,,,,,,,CBAS0004,001,2024-12-11_14h22.35.334,dsst,2024.1.4,2024-12-11 14h22.45.199398 -0500,
images/Inst_cond9.jpeg,images/Inst_cond9_v2.jpeg,set9run1trials.xlsx,images/Slide78.jpeg,ꝲ,⦢,num_5,2,num_8,1,9,1.6703784184002952,9,,1,0,1,0,0,3,3,3,0,2,2,10,305.9856430949876,,,,,,,,,,,,,,,,,,,,,,,,,,,,,,,,,,,,,,,,,,,,,,,305.97313498100266,305.9856430949876,307.68105647701304,307.6457558590919,307.64581940404605,307.68105647701304,307.68105647701304,252.2514468979789,308.60248427605256,num_5,1,0.9144410410663113,None,253.1725518340245,,,,,,,,CBAS0004,001,2024-12-11_14h22.35.334,dsst,2024.1.4,2024-12-11 14h22.45.199398 -0500,
images/Inst_cond9.jpeg,images/Inst_cond9_v2.jpeg,set9run1trials.xlsx,images/Slide70.jpeg,⊢,⊢,num_8,1,num_5,2,2,0.8757023962282248,9,,1,0,1,0,0,3,3,3,0,3,3,2,308.6226287680911,,,,,,,,,,,,,,,,,,,,,,,,,,,,,,,,,,,,,,,,,,,,,,,308.60358560003806,308.6226287680911,309.51760567200836,309.48394366609864,309.4839765620418,309.51760567200836,309.51760567200836,254.08791917096823,310.5124663040042,num_5,0,0.9900020329514518,None,255.08236713998485,,,,,,,,CBAS0004,001,2024-12-11_14h22.35.334,dsst,2024.1.4,2024-12-11 14h22.45.199398 -0500,
images/Inst_cond9.jpeg,images/Inst_cond9_v2.jpeg,set9run1trials.xlsx,images/Slide75.jpeg,৴,ᴒ,num_5,2,num_8,1,6,1.642812312457433,9,,1,0,1,0,0,3,3,3,0,4,4,7,310.5208286960842,,,,,,,,,,,,,,,,,,,,,,,,,,,,,,,,,,,,,,,,,,,,,,,310.51326402905397,310.5208286960842,312.1870150780305,312.15104959206656,312.15108273900114,312.1870150780305,312.1870150780305,256.75745683396235,313.4845861380454,num_5,1,1.2804323609452695,None,258.0547342339996,,,,,,,,CBAS0004,001,2024-12-11_14h22.35.334,dsst,2024.1.4,2024-12-11 14h22.45.199398 -0500,
images/Inst_cond9.jpeg,images/Inst_cond9_v2.jpeg,set9run1trials.xlsx,images/Slide74.jpeg,⋊,⋊,num_8,1,num_5,2,5,1.2612444572293,9,,1,0,1,0,0,3,3,3,0,5,5,6,313.50383421208244,,,,,,,,,,,,,,,,,,,,,,,,,,,,,,,,,,,,,,,,,,,,,,,313.4856317100348,313.50383421208244,314.78586327505764,314.7501093550818,314.7501435710583,314.78586327505764,314.78586327505764,259.35614180203993,315.66860140603967,num_8,1,0.8656261770520359,None,260.23868907394353,,,,,,,,CBAS0004,001,2024-12-11_14h22.35.334,dsst,2024.1.4,2024-12-11 14h22.45.199398 -0500,
images/Inst_cond9.jpeg,images/Inst_cond9_v2.jpeg,set9run1trials.xlsx,images/Slide76.jpeg,⨪,⨪,num_8,1,num_5,2,7,1.5557301430534762,9,,1,0,1,0,0,3,3,3,0,6,6,8,315.6825653850101,,,,,,,,,,,,,,,,,,,,,,,,,,,,,,,,,,,,,,,,,,,,,,,315.6695901390631,315.6825653850101,317.25768767809495,317.226289338083,317.2263229159871,317.25768767809495,317.25768767809495,261.8280615420081,318.2502881770488,num_8,1,0.9857934690080583,None,262.8202554549789,,,,,,,,CBAS0004,001,2024-12-11_14h22.35.334,dsst,2024.1.4,2024-12-11 14h22.45.199398 -0500,
images/Inst_cond9.jpeg,images/Inst_cond9_v2.jpeg,set9run1trials.xlsx,images/Slide73.jpeg,⊂,⪧,num_5,2,num_8,1,5,1.4242807066333847,9,,1,0,1,0,0,3,3,3,0,7,7,5,318.25813220103737,,,,,,,,,,,,,,,,,,,,,,,,,,,,,,,,,,,,,,,,,,,,,,,318.25108061905485,318.25813220103737,319.70971219602507,319.67590752709657,319.67594627209473,319.70971219602507,319.70971219602507,264.2802980649285,320.6493667589966,num_5,1,0.9338147570379078,None,265.2196905630408,,,,,,,,CBAS0004,001,2024-12-11_14h22.35.334,dsst,2024.1.4,2024-12-11 14h22.45.199398 -0500,
images/Inst_cond9.jpeg,images/Inst_cond9_v2.jpeg,set9run1trials.xlsx,images/Slide79.jpeg,⧍,⧍,num_8,1,num_5,2,9,1.2659615135699367,9,,1,0,1,0,0,3,3,3,0,8,8,11,320.6576661920408,,,,,,,,,,,,,,,,,,,,,,,,,,,,,,,,,,,,,,,,,,,,,,,320.65058246208355,320.6576661920408,321.9429153080564,321.908809466986,321.90885060699657,321.9429153080564,321.9429153080564,266.5131746130064,322.8258863610681,num_8,1,0.8766288920305669,None,267.39577157003805,,,,,,,,CBAS0004,001,2024-12-11_14h22.35.334,dsst,2024.1.4,2024-12-11 14h22.45.199398 -0500,
images/Inst_cond9.jpeg,images/Inst_cond9_v2.jpeg,set9run1trials.xlsx,images/Slide69.jpeg,⋋,⟚,num_5,2,num_8,1,1,1.155520703273063,9,,1,0,1,0,0,3,3,3,0,9,9,1,322.83357107802294,,,,,,,,,,,,,,,,,,,,,,,,,,,,,,,,,,,,,,,,,,,,,,,322.82657393603586,322.83357107802294,324.0109712270787,323.9750720229931,323.97510561102536,324.0109712270787,324.0109712270787,268.5814043380087,325.164625784033,num_5,1,1.1365160290151834,None,269.7347259159433,,,,,,,,CBAS0004,001,2024-12-11_14h22.35.334,dsst,2024.1.4,2024-12-11 14h22.45.199398 -0500,
images/Inst_cond9.jpeg,images/Inst_cond9_v2.jpeg,set9run1trials.xlsx,images/Slide77.jpeg,୴,7.0,num_5,2,num_8,1,8,1.571269190674926,9,,1,0,1,0,0,3,3,3,0,10,10,9,325.17857825907413,,,,,,,,,,,,,,,,,,,,,,,,,,,,,,,,,,,,,,,,,,,,,,,325.1656227679923,325.17857825907413,326.77499283407815,326.74035385309253,326.7403921840014,326.77499283407815,326.77499283407815,271.3452618949814,327.8079748559976,num_5,1,1.0285614669555798,None,272.37789212702774,,,,,,,,CBAS0004,001,2024-12-11_14h22.35.334,dsst,2024.1.4,2024-12-11 14h22.45.199398 -0500,
images/Inst_cond9.jpeg,images/Inst_cond9_v2.jpeg,set9run1trials.xlsx,images/Slide71.jpeg,⋺,⧢,num_5,2,num_8,1,3,1.3340414267736418,9,,1,0,1,0,0,3,3,3,0,11,11,3,327.8168060890166,,,,,,,,,,,,,,,,,,,,,,,,,,,,,,,,,,,,,,,,,,,,,,,327.8089043410728,327.8168060890166,329.1749090059893,329.14011127105914,329.1401504270034,329.1749090059893,329.1749090059893,273.74535585101694,330.19068518606946,num_8,0,1.0126210560556501,None,274.7605895169545,,,,,,,,CBAS0004,001,2024-12-11_14h22.35.334,dsst,2024.1.4,2024-12-11 14h22.45.199398 -0500,
images/Inst_cond9.jpeg,images/Inst_cond9_v2.jpeg,set9run1trials.xlsx,,,,,,,,,,,,1,0,1,0,0,3,3,3,,,,,,,,,,,,,,,,,,,,,,,,,,,,,,,,,,,,,,,,,,,,,,,,,,,,,,,,,,,,,,,,,,330.1912147899857,274.760705919005,330.1916836790042,,,,,CBAS0004,001,2024-12-11_14h22.35.334,dsst,2024.1.4,2024-12-11 14h22.45.199398 -0500,
,,,,,,,,,,,,,,1,0,1,0,,,,,,,,,,,,,,,,,,,,,,,,,,,,,,,,,,,,,,,,,,,,,,,,,,,,,,,,,,,,,,,,,,,,,,,,,,,,,CBAS0004,001,2024-12-11_14h22.35.334,dsst,2024.1.4,2024-12-11 14h22.45.199398 -0500,
images/Inst_condrt.jpeg,images/Inst_condrt_v2.jpeg,rtrun1trials.xlsx,images/Slide280.jpeg,⫪,⫪,num_8,f,num_5,j,1,1.2152819946529974,1,r,2,0,2,0,0,0,0,0,0,0,0,1,337.200084433076,,,,,,,,,,,,,,,,,,,,,,,,,,,,,,,,,,,,,,,330.20515710604377,330.2444990660297,330.6873201429844,337.16297128703445,num_2,6.468187054968439,None,281.7332932410063,337.1906934030121,337.200084433076,338.43752816400956,338.40424594201613,338.404279901064,338.43752816400956,338.43752816400956,283.00782777997665,339.304218703066,num_8,1,0.8619085840182379,None,283.87483950401656,,,,,,,,CBAS0004,001,2024-12-11_14h22.35.334,dsst,2024.1.4,2024-12-11 14h22.45.199398 -0500,
images/Inst_condrt.jpeg,images/Inst_condrt_v2.jpeg,rtrun1trials.xlsx,images/Slide347.jpeg,⪤,⩫,num_5,j,num_8,f,5,1.1153212278220153,1,r,2,0,2,0,0,0,0,0,0,1,1,16,339.31416292407084,,,,,,,,,,,,,,,,,,,,,,,,,,,,,,,,,,,,,,,,,,,,,,,339.3058072840795,339.31416292407084,340.4518655400025,340.4200391450431,340.4200742000248,340.4518655400025,340.4518655400025,285.02241235098336,341.4129461440025,num_5,1,0.943744914024137,None,285.98304611595813,,,,,,,,CBAS0004,001,2024-12-11_14h22.35.334,dsst,2024.1.4,2024-12-11 14h22.45.199398 -0500,
images/Inst_condrt.jpeg,images/Inst_condrt_v2.jpeg,rtrun1trials.xlsx,images/Slide282.jpeg,⧶,⧶,num_8,f,num_5,j,2,1.5021462692940069,1,r,2,0,2,0,0,0,0,0,0,2,2,3,341.42660706606694,,,,,,,,,,,,,,,,,,,,,,,,,,,,,,,,,,,,,,,,,,,,,,,341.41394293203484,341.42660706606694,342.9556308609899,342.92028140905313,342.9203352200566,342.9556308609899,342.9556308609899,287.5259228380164,343.8270258990815,num_8,1,0.8638787559466437,None,288.39703286997974,,,,,,,,CBAS0004,001,2024-12-11_14h22.35.334,dsst,2024.1.4,2024-12-11 14h22.45.199398 -0500,
images/Inst_condrt.jpeg,images/Inst_condrt_v2.jpeg,rtrun1trials.xlsx,images/Slide288.jpeg,⋗,⋗,num_8,f,num_5,j,6,0.9511621996229495,1,r,2,0,2,0,0,0,0,0,0,3,3,9,343.8457165650325,,,,,,,,,,,,,,,,,,,,,,,,,,,,,,,,,,,,,,,,,,,,,,,343.8280291140545,343.8457165650325,344.81442035606597,344.7850830050884,344.7851065500872,344.81442035606597,344.81442035606597,289.3847136560362,345.62807566998526,num_8,1,0.7970599950058386,None,290.19819585594814,,,,,,,,CBAS0004,001,2024-12-11_14h22.35.334,dsst,2024.1.4,2024-12-11 14h22.45.199398 -0500,
images/Inst_condrt.jpeg,images/Inst_condrt_v2.jpeg,rtrun1trials.xlsx,images/Slide279.jpeg,∤,⦂,num_5,j,num_8,f,1,1.5494218162834268,1,r,2,0,2,0,0,0,0,0,0,4,4,0,345.641972801066,,,,,,,,,,,,,,,,,,,,,,,,,,,,,,,,,,,,,,,,,,,,,,,345.6291002810467,345.641972801066,347.2114393510856,347.1841916750418,347.18420994700864,347.2114393510856,347.2114393510856,291.78174022503663,348.1024979840731,num_5,1,0.8879923149943352,None,292.67244243598543,,,,,,,,CBAS0004,001,2024-12-11_14h22.35.334,dsst,2024.1.4,2024-12-11 14h22.45.199398 -0500,
images/Inst_condrt.jpeg,images/Inst_condrt_v2.jpeg,rtrun1trials.xlsx,images/Slide289.jpeg,⊹,⋈,num_5,j,num_8,f,7,1.3632837382230147,1,r,2,0,2,0,0,0,0,0,0,5,5,10,348.111264451989,,,,,,,,,,,,,,,,,,,,,,,,,,,,,,,,,,,,,,,,,,,,,,,348.1032287540147,348.111264451989,349.50297581008635,349.46777467103675,349.4678372370545,349.50297581008635,349.50297581008635,294.073397433036,350.42476166808046,num_5,1,0.916512246010825,None,294.9950314000016,,,,,,,,CBAS0004,001,2024-12-11_14h22.35.334,dsst,2024.1.4,2024-12-11 14h22.45.199398 -0500,
images/Inst_condrt.jpeg,images/Inst_condrt_v2.jpeg,rtrun1trials.xlsx,images/Slide284.jpeg,▸,▸,num_8,f,num_5,j,3,1.2777724365695504,1,r,2,0,2,0,0,0,0,0,0,6,6,5,350.4489282310242,,,,,,,,,,,,,,,,,,,,,,,,,,,,,,,,,,,,,,,,,,,,,,,350.4260188350454,350.4489282310242,351.74709098401945,351.716873124009,351.7168954050867,351.74709098401945,351.74709098401945,296.3174703590339,352.4421447709901,num_8,1,0.688383324071765,None,297.01221337902825,,,,,,,,CBAS0004,001,2024-12-11_14h22.35.334,dsst,2024.1.4,2024-12-11 14h22.45.199398 -0500,
images/Inst_condrt.jpeg,images/Inst_condrt_v2.jpeg,rtrun1trials.xlsx,images/Slide286.jpeg,☆,☆,num_8,f,num_5,j,4,1.1618379427978303,1,r,2,0,2,0,0,0,0,0,0,7,7,7,352.4650638930034,,,,,,,,,,,,,,,,,,,,,,,,,,,,,,,,,,,,,,,,,,,,,,,352.44311931403354,352.4650638930034,353.6502023800276,353.6164484299952,353.61648198007606,353.6502023800276,353.6502023800276,298.2205676919548,354.3506398909958,num_8,1,0.697329881018959,None,298.9205519419629,,,,,,,,CBAS0004,001,2024-12-11_14h22.35.334,dsst,2024.1.4,2024-12-11 14h22.45.199398 -0500,
images/Inst_condrt.jpeg,images/Inst_condrt_v2.jpeg,rtrun1trials.xlsx,images/Slide290.jpeg,⩳,⩳,num_8,f,num_5,j,7,0.9159016504151306,1,r,2,0,2,0,0,0,0,0,0,8,8,11,354.35990482603665,,,,,,,,,,,,,,,,,,,,,,,,,,,,,,,,,,,,,,,,,,,,,,,354.3513539910782,354.35990482603665,355.2980093200458,355.2658740330953,355.265901723993,355.2980093200458,355.2980093200458,299.8684395989403,356.0004287320189,num_5,0,0.6974493450252339,None,300.5702858630102,,,,,,,,CBAS0004,001,2024-12-11_14h22.35.334,dsst,2024.1.4,2024-12-11 14h22.45.199398 -0500,
images/Inst_condrt.jpeg,images/Inst_condrt_v2.jpeg,rtrun1trials.xlsx,images/Slide294.jpeg,⫔,⫔,num_8,f,num_5,j,9,1.3752653903815355,1,r,2,0,2,0,0,0,0,0,0,9,9,15,356.0085710430285,,,,,,,,,,,,,,,,,,,,,,,,,,,,,,,,,,,,,,,,,,,,,,,356.0011126290774,356.0085710430285,357.40273837407585,357.3704223710811,357.3704510910902,357.40273837407585,357.40273837407585,301.97319340193644,358.3740473430371,num_8,1,0.9527861229144037,None,302.94412088696845,,,,,,,,CBAS0004,001,2024-12-11_14h22.35.334,dsst,2024.1.4,2024-12-11 14h22.45.199398 -0500,
images/Inst_condrt.jpeg,images/Inst_condrt_v2.jpeg,rtrun1trials.xlsx,images/Slide291.jpeg,⧦,⦧,num_5,j,num_8,f,8,1.0231097731195438,1,r,2,0,2,0,0,0,0,0,0,10,10,12,358.38762703503016,,,,,,,,,,,,,,,,,,,,,,,,,,,,,,,,,,,,,,,,,,,,,,,358.37506039708387,358.38762703503016,359.42720475408714,359.39727581106126,359.3973076430848,359.42720475408714,359.42720475408714,303.9975137269357,360.372723478009,num_5,1,0.9282926539890468,None,304.9428492989391,,,,,,,,CBAS0004,001,2024-12-11_14h22.35.334,dsst,2024.1.4,2024-12-11 14h22.45.199398 -0500,
images/Inst_condrt.jpeg,images/Inst_condrt_v2.jpeg,rtrun1trials.xlsx,images/Slide293.jpeg,⦢,⦶,num_5,j,num_8,f,9,0.992989949508859,1,r,2,0,2,0,0,0,0,0,0,11,11,14,360.38706955802627,,,,,,,,,,,,,,,,,,,,,,,,,,,,,,,,,,,,,,,,,,,,,,,360.37380206701346,360.38706955802627,361.3948999120621,361.3640003640903,361.3640293380013,361.3948999120621,361.3948999120621,305.96563413296826,362.23185366007965,num_5,1,0.8325742620509118,None,306.8017663679784,,,,,,,,CBAS0004,001,2024-12-11_14h22.35.334,dsst,2024.1.4,2024-12-11 14h22.45.199398 -0500,
images/Inst_condrt.jpeg,images/Inst_condrt_v2.jpeg,rtrun1trials.xlsx,images/Slide348.jpeg,⨵,⨵,num_8,f,num_5,j,5,1.033895330594949,1,r,2,0,2,0,0,0,0,0,0,12,12,17,362.2405494590057,,,,,,,,,,,,,,,,,,,,,,,,,,,,,,,,,,,,,,,,,,,,,,,362.23251458699815,362.2405494590057,363.29326699709054,363.2636100940872,363.2636332720285,363.29326699709054,363.29326699709054,307.86360576795414,363.9885548549937,num_8,1,0.6782012149924412,None,308.5586410999531,,,,,,,,CBAS0004,001,2024-12-11_14h22.35.334,dsst,2024.1.4,2024-12-11 14h22.45.199398 -0500,
images/Inst_condrt.jpeg,images/Inst_condrt_v2.jpeg,rtrun1trials.xlsx,images/Slide281.jpeg,⟖,⦾,num_5,j,num_8,f,2,1.667712943772069,1,r,2,0,2,0,0,0,0,0,0,13,13,2,364.0025120670907,,,,,,,,,,,,,,,,,,,,,,,,,,,,,,,,,,,,,,,,,,,,,,,363.989525743993,364.0025120670907,365.6961868640501,365.66323495609686,365.66326948604546,365.6961868640501,365.6961868640501,310.2668271010043,366.46420280309394,num_5,1,0.7632723869755864,None,311.03417736000847,,,,,,,,CBAS0004,001,2024-12-11_14h22.35.334,dsst,2024.1.4,2024-12-11 14h22.45.199398 -0500,
images/Inst_condrt.jpeg,images/Inst_condrt_v2.jpeg,rtrun1trials.xlsx,images/Slide287.jpeg,⊐,⌠,num_5,j,num_8,f,6,1.6939989976665726,1,r,2,0,2,0,0,0,0,0,0,14,14,8,366.4737899020547,,,,,,,,,,,,,,,,,,,,,,,,,,,,,,,,,,,,,,,,,,,,,,,366.4649311050307,366.4737899020547,368.18695080908947,368.15216349309776,368.1521973250201,368.18695080908947,368.18695080908947,312.7572812179569,368.9721321660327,num_5,1,0.7685431019635871,None,313.5422525629401,,,,,,,,CBAS0004,001,2024-12-11_14h22.35.334,dsst,2024.1.4,2024-12-11 14h22.45.199398 -0500,
images/Inst_condrt.jpeg,images/Inst_condrt_v2.jpeg,rtrun1trials.xlsx,images/Slide283.jpeg,⧫,⧞,num_5,j,num_8,f,3,1.1690006958362607,1,r,2,0,2,0,0,0,0,0,0,15,15,4,368.9859056880232,,,,,,,,,,,,,,,,,,,,,,,,,,,,,,,,,,,,,,,,,,,,,,,368.9731603250839,368.9859056880232,370.18053463299293,370.14558749098796,370.1456220720429,370.18053463299293,370.18053463299293,314.7509318710072,371.02072027500253,num_5,1,0.8229507999494672,None,315.5908091700403,,,,,,,,CBAS0004,001,2024-12-11_14h22.35.334,dsst,2024.1.4,2024-12-11 14h22.45.199398 -0500,
images/Inst_condrt.jpeg,images/Inst_condrt_v2.jpeg,rtrun1trials.xlsx,images/Slide285.jpeg,Ω,ℇ,num_5,j,num_8,f,4,1.1231575889274805,1,r,2,0,2,0,0,0,0,0,0,16,16,6,371.0349257630296,,,,,,,,,,,,,,,,,,,,,,,,,,,,,,,,,,,,,,,,,,,,,,,371.0216946640285,371.0349257630296,372.178382816026,372.1452790250769,372.1453136970522,372.178382816026,372.178382816026,316.7489393419819,373.0422273230506,num_5,1,0.8491415260359645,None,317.61267708498053,,,,,,,,CBAS0004,001,2024-12-11_14h22.35.334,dsst,2024.1.4,2024-12-11 14h22.45.199398 -0500,
images/Inst_condrt.jpeg,images/Inst_condrt_v2.jpeg,rtrun1trials.xlsx,images/Slide292.jpeg,⧢,⧢,num_8,f,num_5,j,8,1.083226946360256,1,r,2,0,2,0,0,0,0,0,0,17,17,13,373.0572877890663,,,,,,,,,,,,,,,,,,,,,,,,,,,,,,,,,,,,,,,,,,,,,,,373.0435952920234,373.0572877890663,374.1614717040211,374.12764314899687,374.12768608599436,374.1614717040211,374.1614717040211,318.7319413369987,375.06188816810027,num_8,1,0.8739388940157369,None,319.63199949800037,,,,,,,,CBAS0004,001,2024-12-11_14h22.35.334,dsst,2024.1.4,2024-12-11 14h22.45.199398 -0500,
images/Inst_condrt.jpeg,images/Inst_condrt_v2.jpeg,rtrun1trials.xlsx,,,,,,,,,,,,2,0,2,0,0,0,0,0,,,,,,,,,,,,,,,,,,,,,,,,,,,,,,,,,,,,,,,,,,,,,,,,,,,,,,,,,,,,,,,,,,375.062687932048,319.6321847749641,375.0635804440826,,,,,CBAS0004,001,2024-12-11_14h22.35.334,dsst,2024.1.4,2024-12-11 14h22.45.199398 -0500,
images/Inst_cond9.jpeg,images/Inst_cond9_v2.jpeg,set9run1trials.xlsx,images/Slide76.jpeg,⨪,⨪,num_8,1,num_5,2,7,1.5557301430534762,9,,2,0,2,0,0,1,1,3,0,0,0,8,377.767070322996,,,,,,,,,,,,,,,,,,,,,,,,,,,,,,,,,,,,,,,375.0639721429907,375.1025488250889,375.55895262002014,377.7346017539967,num_2,2.172654077061452,None,322.3044429740403,377.75725815305486,377.767070322996,379.34492930409033,379.30993667803705,379.30997100798413,379.34492930409033,379.34492930409033,323.91531580802985,380.3441414030967,num_8,1,0.9945182059891522,None,324.9142747860169,,,,,,,,CBAS0004,001,2024-12-11_14h22.35.334,dsst,2024.1.4,2024-12-11 14h22.45.199398 -0500,
images/Inst_cond9.jpeg,images/Inst_cond9_v2.jpeg,set9run1trials.xlsx,images/Slide68.jpeg,⦊,⦊,num_8,1,num_5,2,1,1.2365525527031083,9,,2,0,2,0,0,1,1,3,0,1,1,0,380.35257873602677,,,,,,,,,,,,,,,,,,,,,,,,,,,,,,,,,,,,,,,,,,,,,,,380.3452649899991,380.35257873602677,381.6080364820082,381.57563699700404,381.5756788550643,381.6080364820082,381.6080364820082,326.1785853439942,382.5433588720625,num_8,1,0.9314735159277916,None,327.1132845529355,,,,,,,,CBAS0004,001,2024-12-11_14h22.35.334,dsst,2024.1.4,2024-12-11 14h22.45.199398 -0500,
images/Inst_cond9.jpeg,images/Inst_cond9_v2.jpeg,set9run1trials.xlsx,images/Slide72.jpeg,⦒,⦒,num_8,1,num_5,2,4,1.040959215279409,9,,2,0,2,0,0,1,1,3,0,2,2,4,382.55170231009834,,,,,,,,,,,,,,,,,,,,,,,,,,,,,,,,,,,,,,,,,,,,,,,382.54403044702485,382.55170231009834,383.61496741499286,383.5814344160026,383.58146866504103,383.61496741499286,383.61496741499286,328.1853446640307,384.4163035200909,num_8,1,0.7965766889974475,None,328.98618954396807,,,,,,,,CBAS0004,001,2024-12-11_14h22.35.334,dsst,2024.1.4,2024-12-11 14h22.45.199398 -0500,
images/Inst_cond9.jpeg,images/Inst_cond9_v2.jpeg,set9run1trials.xlsx,images/Slide77.jpeg,୴,7.0,num_5,2,num_8,1,8,1.571269190674926,9,,2,0,2,0,0,1,1,3,0,3,3,9,384.4395618609851,,,,,,,,,,,,,,,,,,,,,,,,,,,,,,,,,,,,,,,,,,,,,,,384.4169383670669,384.4395618609851,386.03024601598736,385.9966799070826,385.9967136849882,386.03024601598736,386.03024601598736,330.60046569094993,386.9007476090919,num_5,1,0.8532847129972652,None,331.4708320159698,,,,,,,,CBAS0004,001,2024-12-11_14h22.35.334,dsst,2024.1.4,2024-12-11 14h22.45.199398 -0500,
images/Inst_cond9.jpeg,images/Inst_cond9_v2.jpeg,set9run1trials.xlsx,images/Slide71.jpeg,⋺,⧢,num_5,2,num_8,1,3,1.3340414267736418,9,,2,0,2,0,0,1,1,3,0,4,4,3,386.91451623500325,,,,,,,,,,,,,,,,,,,,,,,,,,,,,,,,,,,,,,,,,,,,,,,386.90171421703417,386.91451623500325,388.2728599390248,388.24052410700824,388.2405514130369,388.2728599390248,388.2728599390248,332.84352073294576,389.45676739304326,num_5,1,1.1786651870934293,None,334.02664222195745,,,,,,,,CBAS0004,001,2024-12-11_14h22.35.334,dsst,2024.1.4,2024-12-11 14h22.45.199398 -0500,
images/Inst_cond9.jpeg,images/Inst_cond9_v2.jpeg,set9run1trials.xlsx,images/Slide75.jpeg,৴,ᴒ,num_5,2,num_8,1,6,1.642812312457433,9,,2,0,2,0,0,1,1,3,0,5,5,7,389.4658777740551,,,,,,,,,,,,,,,,,,,,,,,,,,,,,,,,,,,,,,,,,,,,,,,389.4575806770008,389.4658777740551,391.1253496360732,391.0952608770458,391.09528419200797,391.1253496360732,391.1253496360732,335.6957260329509,392.1908512150403,num_5,1,1.0621883489657193,None,336.7613476580009,,,,,,,,CBAS0004,001,2024-12-11_14h22.35.334,dsst,2024.1.4,2024-12-11 14h22.45.199398 -0500,
images/Inst_cond9.jpeg,images/Inst_cond9_v2.jpeg,set9run1trials.xlsx,images/Slide69.jpeg,⋋,⟚,num_5,2,num_8,1,1,1.155520703273063,9,,2,0,2,0,0,1,1,3,0,6,6,1,392.19982668198645,,,,,,,,,,,,,,,,,,,,,,,,,,,,,,,,,,,,,,,,,,,,,,,392.1921158169862,392.19982668198645,393.3685878170654,393.33901648502797,393.3390402160585,393.3685878170654,393.3685878170654,337.939007080975,394.4019849570468,num_5,1,1.0188457920448855,None,338.9721030850196,,,,,,,,CBAS0004,001,2024-12-11_14h22.35.334,dsst,2024.1.4,2024-12-11 14h22.45.199398 -0500,
images/Inst_cond9.jpeg,images/Inst_cond9_v2.jpeg,set9run1trials.xlsx,images/Slide73.jpeg,⊂,⪧,num_5,2,num_8,1,5,1.4242807066333847,9,,2,0,2,0,0,1,1,3,0,7,7,5,394.41748331603594,,,,,,,,,,,,,,,,,,,,,,,,,,,,,,,,,,,,,,,,,,,,,,,394.403015669086,394.41748331603594,395.85925446706824,395.8276366289938,395.8276649960317,395.85925446706824,395.85925446706824,340.42961080302484,397.0624584540492,num_5,1,1.2003317070193589,None,341.63232242595404,,,,,,,,CBAS0004,001,2024-12-11_14h22.35.334,dsst,2024.1.4,2024-12-11 14h22.45.199398 -0500,
images/Inst_cond9.jpeg,images/Inst_cond9_v2.jpeg,set9run1trials.xlsx,images/Slide78.jpeg,ꝲ,⦢,num_5,2,num_8,1,9,1.6703784184002952,9,,2,0,2,0,0,1,1,3,0,8,8,10,397.08616374304984,,,,,,,,,,,,,,,,,,,,,,,,,,,,,,,,,,,,,,,,,,,,,,,397.0630763680674,397.08616374304984,398.7750259640161,398.74368300207425,398.74371031601913,398.7750259640161,398.7750259640161,343.34542575094383,399.6958691640757,num_5,1,0.9165673350216821,None,344.26592700893525,,,,,,,,CBAS0004,001,2024-12-11_14h22.35.334,dsst,2024.1.4,2024-12-11 14h22.45.199398 -0500,
images/Inst_cond9.jpeg,images/Inst_cond9_v2.jpeg,set9run1trials.xlsx,images/Slide79.jpeg,⧍,⧍,num_8,1,num_5,2,9,1.2659615135699367,9,,2,0,2,0,0,1,1,3,0,9,9,11,399.7086785590509,,,,,,,,,,,,,,,,,,,,,,,,,,,,,,,,,,,,,,,,,,,,,,,399.6968214029912,399.7086785590509,400.99749224307016,400.9608461590251,400.960895781056,400.99749224307016,400.99749224307016,345.5682194499532,401.9204091280699,num_8,1,0.9180178189417347,None,346.4902950669639,,,,,,,,CBAS0004,001,2024-12-11_14h22.35.334,dsst,2024.1.4,2024-12-11 14h22.45.199398 -0500,
images/Inst_cond9.jpeg,images/Inst_cond9_v2.jpeg,set9run1trials.xlsx,images/Slide70.jpeg,⊢,⊢,num_8,1,num_5,2,2,0.8757023962282248,9,,2,0,2,0,0,1,1,3,0,10,10,2,401.9291160060093,,,,,,,,,,,,,,,,,,,,,,,,,,,,,,,,,,,,,,,,,,,,,,,401.9210692840861,401.9291160060093,402.82264496805146,402.7917812099913,402.79181580408476,402.82264496805146,402.82264496805146,347.39301093295217,403.6606264790753,num_8,1,0.8208533180877566,None,348.2307604789967,,,,,,,,CBAS0004,001,2024-12-11_14h22.35.334,dsst,2024.1.4,2024-12-11 14h22.45.199398 -0500,
images/Inst_cond9.jpeg,images/Inst_cond9_v2.jpeg,set9run1trials.xlsx,images/Slide74.jpeg,⋊,⋊,num_8,1,num_5,2,5,1.2612444572293,9,,2,0,2,0,0,1,1,3,0,11,11,6,403.6751945220167,,,,,,,,,,,,,,,,,,,,,,,,,,,,,,,,,,,,,,,,,,,,,,,403.6616843040101,403.6751945220167,404.95943806506693,404.92599943303503,404.9260332020931,404.95943806506693,404.95943806506693,349.53021206893027,406.0471761280205,num_8,1,1.0680327920708805,None,350.6172281500185,,,,,,,,CBAS0004,001,2024-12-11_14h22.35.334,dsst,2024.1.4,2024-12-11 14h22.45.199398 -0500,
images/Inst_cond9.jpeg,images/Inst_cond9_v2.jpeg,set9run1trials.xlsx,,,,,,,,,,,,2,0,2,0,0,1,1,3,,,,,,,,,,,,,,,,,,,,,,,,,,,,,,,,,,,,,,,,,,,,,,,,,,,,,,,,,,,,,,,,,,406.0479015830206,350.617398255039,406.04907770606223,,,,,CBAS0004,001,2024-12-11_14h22.35.334,dsst,2024.1.4,2024-12-11 14h22.45.199398 -0500,
images/Inst_cond3.jpeg,images/Inst_cond3_v2.jpeg,set3run1trials.xlsx,images/Slide33.jpeg,⋺,⟞,num_5,2,num_8,1,5,1.0372817613612262,3,,2,0,2,0,0,2,2,2,0,0,0,4,409.7572462410899,,,,,,,,,,,,,,,,,,,,,,,,,,,,,,,,,,,,,,,406.04956143104937,406.0856432990404,406.53974633605685,409.73506705102045,num_2,3.167770336032845,None,354.30486554594245,409.74816714809276,409.7572462410899,410.8192191279959,410.7845151030924,410.7845579480054,410.8192191279959,410.8192191279959,355.3897455469705,411.6771351280622,num_5,1,0.8402730260277167,None,356.247545109014,,,,,,,,CBAS0004,001,2024-12-11_14h22.35.334,dsst,2024.1.4,2024-12-11 14h22.45.199398 -0500,
images/Inst_cond3.jpeg,images/Inst_cond3_v2.jpeg,set3run1trials.xlsx,images/Slide40.jpeg,⫧,⫧,num_8,1,num_5,2,6,1.303181976445416,3,,2,0,2,0,0,2,2,2,0,1,1,11,411.69175212900154,,,,,,,,,,,,,,,,,,,,,,,,,,,,,,,,,,,,,,,,,,,,,,,411.6784323650645,411.69175212900154,413.0157839480089,412.9837715009926,412.98380212904885,413.0157839480089,413.0157839480089,357.58642753900494,414.0082373750629,num_8,1,0.9877209149999544,None,358.57811666000634,,,,,,,,CBAS0004,001,2024-12-11_14h22.35.334,dsst,2024.1.4,2024-12-11 14h22.45.199398 -0500,
images/Inst_cond3.jpeg,images/Inst_cond3_v2.jpeg,set3run1trials.xlsx,images/Slide34.jpeg,⊂,⊂,num_5,2,num_8,1,5,1.2572995822999768,3,,2,0,2,0,0,2,2,2,0,2,2,5,414.031547214021,,,,,,,,,,,,,,,,,,,,,,,,,,,,,,,,,,,,,,,,,,,,,,,414.00891870306805,414.031547214021,415.3151712960098,415.28318733000197,415.28321436804254,415.3151712960098,415.3151712960098,359.8859231680399,416.27463107102085,num_5,1,0.9523225910961628,None,360.84458484500647,,,,,,,,CBAS0004,001,2024-12-11_14h22.35.334,dsst,2024.1.4,2024-12-11 14h22.45.199398 -0500,
images/Inst_cond3.jpeg,images/Inst_cond3_v2.jpeg,set3run1trials.xlsx,images/Slide39.jpeg,⪧,⇀,num_8,1,num_5,2,6,0.7747461405170645,3,,2,0,2,0,0,2,2,2,0,3,3,10,416.28438437508885,,,,,,,,,,,,,,,,,,,,,,,,,,,,,,,,,,,,,,,,,,,,,,,416.27536535204854,416.28438437508885,417.07960280706175,417.0486456750659,417.04867945809383,417.07960280706175,417.07960280706175,361.6503587689949,418.24894716904964,num_8,1,1.1638859920203686,None,362.81881306599826,,,,,,,,CBAS0004,001,2024-12-11_14h22.35.334,dsst,2024.1.4,2024-12-11 14h22.45.199398 -0500,
images/Inst_cond3.jpeg,images/Inst_cond3_v2.jpeg,set3run1trials.xlsx,images/Slide31.jpeg,϶,϶,num_8,1,num_5,2,4,1.6795463350974076,3,,2,0,2,0,0,2,2,2,0,4,4,2,418.25862504099496,,,,,,,,,,,,,,,,,,,,,,,,,,,,,,,,,,,,,,,,,,,,,,,418.2496236220468,418.25862504099496,419.9625283110654,419.9318688410567,419.9318963990081,419.9625283110654,419.9625283110654,364.5338780740276,420.70978464209475,num_8,1,0.7289732960052788,None,365.2798694029916,,,,,,,,CBAS0004,001,2024-12-11_14h22.35.334,dsst,2024.1.4,2024-12-11 14h22.45.199398 -0500,
images/Inst_cond3.jpeg,images/Inst_cond3_v2.jpeg,set3run1trials.xlsx,images/Slide36.jpeg,϶,϶,num_8,1,num_5,2,5,0.9663824923701582,3,,2,0,2,0,0,2,2,2,0,5,5,7,420.7233367440058,,,,,,,,,,,,,,,,,,,,,,,,,,,,,,,,,,,,,,,,,,,,,,,420.7107536219992,420.7233367440058,421.7100344920764,421.68022397509776,421.6802641430404,421.7100344920764,421.7100344920764,366.2804525709944,422.8812039740151,num_8,1,1.1654975160490721,None,367.4514149649767,,,,,,,,CBAS0004,001,2024-12-11_14h22.35.334,dsst,2024.1.4,2024-12-11 14h22.45.199398 -0500,
images/Inst_cond3.jpeg,images/Inst_cond3_v2.jpeg,set3run1trials.xlsx,images/Slide37.jpeg,৴,〜,num_5,2,num_8,1,6,0.8914751896980226,3,,2,0,2,0,0,2,2,2,0,6,6,8,422.8899455650244,,,,,,,,,,,,,,,,,,,,,,,,,,,,,,,,,,,,,,,,,,,,,,,422.88254762999713,422.8899455650244,423.7973094100598,423.76867847598623,423.76869966404047,423.7973094100598,423.7973094100598,368.36779235699214,424.6383739960147,num_5,1,0.8382413910003379,None,369.2082872749306,,,,,,,,CBAS0004,001,2024-12-11_14h22.35.334,dsst,2024.1.4,2024-12-11 14h22.45.199398 -0500,
images/Inst_cond3.jpeg,images/Inst_cond3_v2.jpeg,set3run1trials.xlsx,images/Slide32.jpeg,৴,〜,num_5,2,num_8,1,4,1.2797644478420258,3,,2,0,2,0,0,2,2,2,0,7,7,3,424.66184307402,,,,,,,,,,,,,,,,,,,,,,,,,,,,,,,,,,,,,,,,,,,,,,,424.63905455509666,424.66184307402,425.9592997720465,425.92942178004887,425.92945255700033,425.9592997720465,425.9592997720465,370.5299681320321,426.94050304801203,num_5,1,0.9642033169511706,None,371.51069178199396,,,,,,,,CBAS0004,001,2024-12-11_14h22.35.334,dsst,2024.1.4,2024-12-11 14h22.45.199398 -0500,
images/Inst_cond3.jpeg,images/Inst_cond3_v2.jpeg,set3run1trials.xlsx,images/Slide35.jpeg,⋊,⨪,num_8,1,num_5,2,5,0.7218498266848039,3,,2,0,2,0,0,2,2,2,0,8,8,6,426.9545036990894,,,,,,,,,,,,,,,,,,,,,,,,,,,,,,,,,,,,,,,,,,,,,,,426.9415830540238,426.9545036990894,427.69669252901804,427.6632967500482,427.6633294610074,427.69669252901804,427.69669252901804,372.2671262170188,428.5396570240846,num_8,1,0.8268064029980451,None,373.1097523699282,,,,,,,,CBAS0004,001,2024-12-11_14h22.35.334,dsst,2024.1.4,2024-12-11 14h22.45.199398 -0500,
images/Inst_cond3.jpeg,images/Inst_cond3_v2.jpeg,set3run1trials.xlsx,images/Slide29.jpeg,⊂,⊂,num_8,1,num_5,2,4,1.6494517743944066,3,,2,0,2,0,0,2,2,2,0,9,9,0,428.553462185082,,,,,,,,,,,,,,,,,,,,,,,,,,,,,,,,,,,,,,,,,,,,,,,428.54069036303554,428.553462185082,430.22930574207567,430.19477355701383,430.19480464200024,430.22930574207567,430.22930574207567,374.79975073202513,431.15596231108066,num_8,1,0.9102102610049769,None,375.72605581895914,,,,,,,,CBAS0004,001,2024-12-11_14h22.35.334,dsst,2024.1.4,2024-12-11 14h22.45.199398 -0500,
images/Inst_cond3.jpeg,images/Inst_cond3_v2.jpeg,set3run1trials.xlsx,images/Slide38.jpeg,⋺,⟞,num_5,2,num_8,1,6,1.4873991843013923,3,,2,0,2,0,0,2,2,2,0,10,10,9,431.1697685010731,,,,,,,,,,,,,,,,,,,,,,,,,,,,,,,,,,,,,,,,,,,,,,,431.1569460580358,431.1697685010731,432.67939214699436,432.64533434505574,432.64536744204815,432.67939214699436,432.67939214699436,377.249846606981,433.5285839700373,num_5,1,0.8441413019318134,None,378.098499936983,,,,,,,,CBAS0004,001,2024-12-11_14h22.35.334,dsst,2024.1.4,2024-12-11 14h22.45.199398 -0500,
images/Inst_cond3.jpeg,images/Inst_cond3_v2.jpeg,set3run1trials.xlsx,images/Slide30.jpeg,⋊,⨪,num_5,2,num_8,1,4,1.1480106635943503,3,,2,0,2,0,0,2,2,2,0,11,11,1,433.5365610989975,,,,,,,,,,,,,,,,,,,,,,,,,,,,,,,,,,,,,,,,,,,,,,,433.529444942018,433.5365610989975,434.7107178180013,434.6780999470502,434.6781277760165,434.7107178180013,434.7107178180013,379.281515592942,435.58766010403633,num_5,1,0.868712079944089,None,380.15788466099184,,,,,,,,CBAS0004,001,2024-12-11_14h22.35.334,dsst,2024.1.4,2024-12-11 14h22.45.199398 -0500,
images/Inst_cond3.jpeg,images/Inst_cond3_v2.jpeg,set3run1trials.xlsx,,,,,,,,,,,,2,0,2,0,0,2,2,2,,,,,,,,,,,,,,,,,,,,,,,,,,,,,,,,,,,,,,,,,,,,,,,,,,,,,,,,,,,,,,,,,,435.58859003707767,380.15809150703717,435.5900364120025,,,,,CBAS0004,001,2024-12-11_14h22.35.334,dsst,2024.1.4,2024-12-11 14h22.45.199398 -0500,
images/Inst_cond1.jpeg,images/Inst_cond1_v2.jpeg,set1run1trials.xlsx,images/Slide26.jpeg,⟞,⩀,num_5,2,num_8,1,5,1.2400240498105215,1,nr,2,0,2,0,0,3,3,1,0,0,0,10,437.61212958802935,,,,,,,,,,,,,,,,,,,,,,,,,,,,,,,,,,,,,,,435.59056972700637,435.63082611898426,436.08245987899136,437.5790614980506,num_2,1.4891073890030384,None,382.14917633601,437.6025659670122,437.61212958802935,438.87516044208314,438.8433694760315,438.8433976729866,438.87516044208314,438.87516044208314,383.4458625239786,439.6189996480243,num_5,1,0.7362804180011153,None,384.1894235590007,,,,,,,,CBAS0004,001,2024-12-11_14h22.35.334,dsst,2024.1.4,2024-12-11 14h22.45.199398 -0500,
images/Inst_cond1.jpeg,images/Inst_cond1_v2.jpeg,set1run1trials.xlsx,images/Slide17.jpeg,⊂,⋺,num_5,2,num_8,1,5,1.2125828446722056,1,nr,2,0,2,0,0,3,3,1,0,1,1,1,439.6376986349933,,,,,,,,,,,,,,,,,,,,,,,,,,,,,,,,,,,,,,,,,,,,,,,439.62034507701173,439.6376986349933,440.8759311940521,440.8429292780347,440.84295780409593,440.8759311940521,440.8759311940521,385.44635375996586,441.5673021710245,num_5,1,0.6875624960521236,None,386.1372050199425,,,,,,,,CBAS0004,001,2024-12-11_14h22.35.334,dsst,2024.1.4,2024-12-11 14h22.45.199398 -0500,
images/Inst_cond1.jpeg,images/Inst_cond1_v2.jpeg,set1run1trials.xlsx,images/Slide19.jpeg,∤,⊂,num_5,2,num_8,1,5,0.8712812019390699,1,nr,2,0,2,0,0,3,3,1,0,2,2,3,441.59080888703465,,,,,,,,,,,,,,,,,,,,,,,,,,,,,,,,,,,,,,,,,,,,,,,441.5679523770232,441.59080888703465,442.4824364579981,442.44917358399834,442.44920796109363,442.4824364579981,442.4824364579981,387.0530066669453,443.0844734350685,num_5,1,0.5850578889949247,None,387.6545496110339,,,,,,,,CBAS0004,001,2024-12-11_14h22.35.334,dsst,2024.1.4,2024-12-11 14h22.45.199398 -0500,
images/Inst_cond1.jpeg,images/Inst_cond1_v2.jpeg,set1run1trials.xlsx,images/Slide16.jpeg,⨪,⨪,num_8,1,num_5,2,5,1.5692298036002124,1,nr,2,0,2,0,0,3,3,1,0,3,3,0,443.0980490830261,,,,,,,,,,,,,,,,,,,,,,,,,,,,,,,,,,,,,,,,,,,,,,,443.085421454045,443.0980490830261,444.6893891210202,444.6583152280655,444.6583392940229,444.6893891210202,444.6893891210202,389.26024549803697,445.45317491400056,num_8,1,0.7461216440424323,None,390.0232658640016,,,,,,,,CBAS0004,001,2024-12-11_14h22.35.334,dsst,2024.1.4,2024-12-11 14h22.45.199398 -0500,
images/Inst_cond1.jpeg,images/Inst_cond1_v2.jpeg,set1run1trials.xlsx,images/Slide24.jpeg,⋊,ᓇ,num_5,2,num_8,1,5,0.8798526038490365,1,nr,2,0,2,0,0,3,3,1,0,4,4,8,445.4669891099911,,,,,,,,,,,,,,,,,,,,,,,,,,,,,,,,,,,,,,,,,,,,,,,445.45417053904384,445.4669891099911,446.3698295940412,446.3314908280736,446.33152473100927,446.3698295940412,446.3698295940412,390.9403324229643,447.0667603890179,num_5,1,0.689665752928704,None,391.6369225620292,,,,,,,,CBAS0004,001,2024-12-11_14h22.35.334,dsst,2024.1.4,2024-12-11 14h22.45.199398 -0500,
images/Inst_cond1.jpeg,images/Inst_cond1_v2.jpeg,set1run1trials.xlsx,images/Slide21.jpeg,⧔,⧔,num_8,1,num_5,2,5,0.7133066574926744,1,nr,2,0,2,0,0,3,3,1,0,5,5,5,447.0759201759938,,,,,,,,,,,,,,,,,,,,,,,,,,,,,,,,,,,,,,,,,,,,,,,447.0678066799883,447.0759201759938,447.8044540290721,447.77415911108255,447.77419210306834,447.8044540290721,447.8044540290721,392.37498633400537,448.51623544399627,num_8,1,0.6950199620332569,None,393.0863459899556,,,,,,,,CBAS0004,001,2024-12-11_14h22.35.334,dsst,2024.1.4,2024-12-11 14h22.45.199398 -0500,
images/Inst_cond1.jpeg,images/Inst_cond1_v2.jpeg,set1run1trials.xlsx,images/Slide18.jpeg,⪧,⪧,num_8,1,num_5,2,5,1.5436503085877287,1,nr,2,0,2,0,0,3,3,1,0,6,6,2,448.53022186504677,,,,,,,,,,,,,,,,,,,,,,,,,,,,,,,,,,,,,,,,,,,,,,,448.51723868609406,448.53022186504677,450.089548616088,450.06103468406945,450.06105454603676,450.089548616088,450.089548616088,394.66040710697416,450.78074860200286,num_8,1,0.6739135190146044,None,395.35087883495726,,,,,,,,CBAS0004,001,2024-12-11_14h22.35.334,dsst,2024.1.4,2024-12-11 14h22.45.199398 -0500,
images/Inst_cond1.jpeg,images/Inst_cond1_v2.jpeg,set1run1trials.xlsx,images/Slide20.jpeg,⊢,⩟,num_5,2,num_8,1,5,0.7862115301706457,1,nr,2,0,2,0,0,3,3,1,0,7,7,4,450.7951752929948,,,,,,,,,,,,,,,,,,,,,,,,,,,,,,,,,,,,,,,,,,,,,,,450.78176987799816,450.7951752929948,451.60765565698966,451.57379085803404,451.5738443580922,451.60765565698966,451.60765565698966,396.17817049694713,452.483673396986,num_5,1,0.8598369649844244,None,397.053767262958,,,,,,,,CBAS0004,001,2024-12-11_14h22.35.334,dsst,2024.1.4,2024-12-11 14h22.45.199398 -0500,
images/Inst_cond1.jpeg,images/Inst_cond1_v2.jpeg,set1run1trials.xlsx,images/Slide23.jpeg,⦽,⇃,num_5,2,num_8,1,5,0.8846614348488506,1,nr,2,0,2,0,0,3,3,1,0,8,8,7,452.4974571199855,,,,,,,,,,,,,,,,,,,,,,,,,,,,,,,,,,,,,,,,,,,,,,,452.4846689730184,452.4974571199855,453.40859787305817,453.37331490707584,453.37335835106205,453.40859787305817,453.40859787305817,397.979109001928,454.0410035729874,num_5,1,0.6268585940124467,None,398.6112927090144,,,,,,,,CBAS0004,001,2024-12-11_14h22.35.334,dsst,2024.1.4,2024-12-11 14h22.45.199398 -0500,
images/Inst_cond1.jpeg,images/Inst_cond1_v2.jpeg,set1run1trials.xlsx,images/Slide22.jpeg,⋋,⋋,num_8,1,num_5,2,5,1.040275927412608,1,nr,2,0,2,0,0,3,3,1,0,9,9,6,454.0495042790426,,,,,,,,,,,,,,,,,,,,,,,,,,,,,,,,,,,,,,,,,,,,,,,454.04217999905813,454.0495042790426,455.11066912300885,455.0788443420315,455.07887212908827,455.11066912300885,455.11066912300885,399.68117317394353,455.7974387820577,num_8,1,0.6687957339454442,None,400.3675504470011,,,,,,,,CBAS0004,001,2024-12-11_14h22.35.334,dsst,2024.1.4,2024-12-11 14h22.45.199398 -0500,
images/Inst_cond1.jpeg,images/Inst_cond1_v2.jpeg,set1run1trials.xlsx,images/Slide25.jpeg,৸,৸,num_8,1,num_5,2,5,1.3055587602032057,1,nr,2,0,2,0,0,3,3,1,0,10,10,9,455.81149187800474,,,,,,,,,,,,,,,,,,,,,,,,,,,,,,,,,,,,,,,,,,,,,,,455.7984648440033,455.81149187800474,457.13626985403243,457.10480983601883,457.1048379150452,457.13626985403243,457.13626985403243,401.7070410689339,457.83944135706406,num_8,1,0.6992488519754261,None,402.4094483900117,,,,,,,,CBAS0004,001,2024-12-11_14h22.35.334,dsst,2024.1.4,2024-12-11 14h22.45.199398 -0500,
images/Inst_cond1.jpeg,images/Inst_cond1_v2.jpeg,set1run1trials.xlsx,images/Slide27.jpeg,ᒲ,ᒲ,num_8,1,num_5,2,5,0.7591354373036487,1,nr,2,0,2,0,0,3,3,1,0,11,11,11,457.84823371609673,,,,,,,,,,,,,,,,,,,,,,,,,,,,,,,,,,,,,,,,,,,,,,,457.8402836910682,457.84823371609673,458.62633099302184,458.5942113760393,458.5942387339892,458.62633099302184,458.62633099302184,403.1968803079799,459.329712512088,num_8,1,0.6971357169095427,None,403.8998502769973,,,,,,,,CBAS0004,001,2024-12-11_14h22.35.334,dsst,2024.1.4,2024-12-11 14h22.45.199398 -0500,
images/Inst_cond1.jpeg,images/Inst_cond1_v2.jpeg,set1run1trials.xlsx,,,,,,,,,,,,2,0,2,0,0,3,3,1,,,,,,,,,,,,,,,,,,,,,,,,,,,,,,,,,,,,,,,,,,,,,,,,,,,,,,,,,,,,,,,,,,459.33058399299625,403.9000840099761,459.3317983110901,,,,,CBAS0004,001,2024-12-11_14h22.35.334,dsst,2024.1.4,2024-12-11 14h22.45.199398 -0500,
,,,,,,,,,,,,,,2,0,2,0,,,,,,,,,,,,,,,,,,,,,,,,,,,,,,,,,,,,,,,,,,,,,,,,,,,,,,,,,,,,,,,,,,,,,,,,,,,,,CBAS0004,001,2024-12-11_14h22.35.334,dsst,2024.1.4,2024-12-11 14h22.45.199398 -0500,
images/Inst_cond3.jpeg,images/Inst_cond3_v2.jpeg,set3run1trials.xlsx,images/Slide34.jpeg,⊂,⊂,num_5,2,num_8,1,5,1.2572995822999768,3,,3,0,3,0,0,0,0,2,0,0,0,5,462.29314462607726,,,,,,,,,,,,,,,,,,,,,,,,,,,,,,,,,,,,,,,459.345132793067,459.3822011820739,459.82664911809843,462.27090761007275,num_2,2.4168241899460554,None,406.84087771200575,462.2838929950958,462.29314462607726,463.5677369510522,463.5365321340505,463.5365608630236,463.5677369510522,463.5677369510522,408.1386156929657,464.47149564605206,num_5,1,0.8997792549198493,None,409.0416169569362,,,,,,,,CBAS0004,001,2024-12-11_14h22.35.334,dsst,2024.1.4,2024-12-11 14h22.45.199398 -0500,
images/Inst_cond3.jpeg,images/Inst_cond3_v2.jpeg,set3run1trials.xlsx,images/Slide29.jpeg,⊂,⊂,num_8,1,num_5,2,4,1.6494517743944066,3,,3,0,3,0,0,0,0,2,0,1,1,0,464.4799604280852,,,,,,,,,,,,,,,,,,,,,,,,,,,,,,,,,,,,,,,,,,,,,,,464.47248369804583,464.4799604280852,466.1532573410077,466.11992865405045,466.11995594005566,466.1532573410077,466.1532573410077,410.72383742802776,467.3701325210277,num_8,1,1.2103005190147087,None,411.9403188889846,,,,,,,,CBAS0004,001,2024-12-11_14h22.35.334,dsst,2024.1.4,2024-12-11 14h22.45.199398 -0500,
images/Inst_cond3.jpeg,images/Inst_cond3_v2.jpeg,set3run1trials.xlsx,images/Slide31.jpeg,϶,϶,num_8,1,num_5,2,4,1.6795463350974076,3,,3,0,3,0,0,0,0,2,0,2,2,2,467.3783554530237,,,,,,,,,,,,,,,,,,,,,,,,,,,,,,,,,,,,,,,,,,,,,,,467.37117234803736,467.3783554530237,469.0772076990688,469.04225528403185,469.0422884870786,469.0772076990688,469.0772076990688,413.64779810700566,469.8439405490644,num_8,1,0.7503387039760128,None,414.4140099720098,,,,,,,,CBAS0004,001,2024-12-11_14h22.35.334,dsst,2024.1.4,2024-12-11 14h22.45.199398 -0500,
images/Inst_cond3.jpeg,images/Inst_cond3_v2.jpeg,set3run1trials.xlsx,images/Slide39.jpeg,⪧,⇀,num_8,1,num_5,2,6,0.7747461405170645,3,,3,0,3,0,0,0,0,2,0,3,3,10,469.8574213180691,,,,,,,,,,,,,,,,,,,,,,,,,,,,,,,,,,,,,,,,,,,,,,,469.84488258801866,469.8574213180691,470.65021337906364,470.61828135699034,470.61830890609417,470.65021337906364,470.65021337906364,415.2210452830186,471.44365719205234,num_5,0,0.7852970219682902,None,416.0137486680178,,,,,,,,CBAS0004,001,2024-12-11_14h22.35.334,dsst,2024.1.4,2024-12-11 14h22.45.199398 -0500,
images/Inst_cond3.jpeg,images/Inst_cond3_v2.jpeg,set3run1trials.xlsx,images/Slide33.jpeg,⋺,⟞,num_5,2,num_8,1,5,1.0372817613612262,3,,3,0,3,0,0,0,0,2,0,4,4,4,471.4624941709917,,,,,,,,,,,,,,,,,,,,,,,,,,,,,,,,,,,,,,,,,,,,,,,471.44476480502635,471.4624941709917,472.5153939150041,472.48436673008837,472.4843949530041,472.5153939150041,472.5153939150041,417.0863019420067,473.33522700099275,num_5,1,0.792114197043702,None,417.9050856869435,,,,,,,,CBAS0004,001,2024-12-11_14h22.35.334,dsst,2024.1.4,2024-12-11 14h22.45.199398 -0500,
images/Inst_cond3.jpeg,images/Inst_cond3_v2.jpeg,set3run1trials.xlsx,images/Slide37.jpeg,৴,〜,num_5,2,num_8,1,6,0.8914751896980226,3,,3,0,3,0,0,0,0,2,0,5,5,8,473.3485645960318,,,,,,,,,,,,,,,,,,,,,,,,,,,,,,,,,,,,,,,,,,,,,,,473.33582525199745,473.3485645960318,474.2676354270661,474.2342454160098,474.23429898603354,474.2676354270661,474.2676354270661,418.83815957803745,475.1685753480997,num_5,1,0.8718422120437026,None,419.73843282600865,,,,,,,,CBAS0004,001,2024-12-11_14h22.35.334,dsst,2024.1.4,2024-12-11 14h22.45.199398 -0500,
images/Inst_cond3.jpeg,images/Inst_cond3_v2.jpeg,set3run1trials.xlsx,images/Slide35.jpeg,⋊,⨪,num_8,1,num_5,2,5,0.7218498266848039,3,,3,0,3,0,0,0,0,2,0,6,6,6,475.1813761360245,,,,,,,,,,,,,,,,,,,,,,,,,,,,,,,,,,,,,,,,,,,,,,,475.1691714139888,475.1813761360245,475.92243147909176,475.8892288770294,475.8892582450062,475.92243147909176,475.92243147909176,420.49311804701574,476.8609747940209,num_8,1,0.9210771180223674,None,421.43106356600765,,,,,,,,CBAS0004,001,2024-12-11_14h22.35.334,dsst,2024.1.4,2024-12-11 14h22.45.199398 -0500,
images/Inst_cond3.jpeg,images/Inst_cond3_v2.jpeg,set3run1trials.xlsx,images/Slide30.jpeg,⋊,⨪,num_5,2,num_8,1,4,1.1480106635943503,3,,3,0,3,0,0,0,0,2,0,7,7,1,476.87491097906604,,,,,,,,,,,,,,,,,,,,,,,,,,,,,,,,,,,,,,,,,,,,,,,476.8619623600971,476.87491097906604,478.04676084103994,478.01573939505033,478.0157637980301,478.04676084103994,478.04676084103994,422.6178310189862,479.1411472170148,num_5,1,1.0767355780117214,None,423.71123627899215,,,,,,,,CBAS0004,001,2024-12-11_14h22.35.334,dsst,2024.1.4,2024-12-11 14h22.45.199398 -0500,
images/Inst_cond3.jpeg,images/Inst_cond3_v2.jpeg,set3run1trials.xlsx,images/Slide36.jpeg,϶,϶,num_8,1,num_5,2,5,0.9663824923701582,3,,3,0,3,0,0,0,0,2,0,8,8,7,479.15488490602,,,,,,,,,,,,,,,,,,,,,,,,,,,,,,,,,,,,,,,,,,,,,,,479.14212222909555,479.15488490602,480.1400330470642,480.1053126360057,480.10534093307797,480.1400330470642,480.1400330470642,424.7105711699696,481.0909888710594,num_8,1,0.9434546390548348,None,425.6610051000025,,,,,,,,CBAS0004,001,2024-12-11_14h22.35.334,dsst,2024.1.4,2024-12-11 14h22.45.199398 -0500,
